Time(ms),AccX(m/s^2),AccY(m/s^2),AccZ(m/s^2),GyroX(rad/s),GyroY(rad/s),GyroZ(rad/s),MagX(uT),MagY(uT),MagZ(uT),Roll(deg),Pitch(deg),Yaw(deg)
8,-0.7800,2.3600,9.7100,0.8279,0.0960,-0.0589,39.1875,-45.1875,-28.0625,349.8125,-4.3750,-9.5000
70,0.1900,2.3100,11.4000,0.5574,-0.8247,-0.0022,38.7500,-41.5625,-29.5000,350.2500,-2.4375,-12.3125
134,0.1500,3.1700,11.2600,0.6654,-0.4963,-0.0731,38.7500,-38.8750,-30.6875,350.6250,-0.4375,-14.0625
199,0.4800,3.7800,12.0700,-0.2662,-1.1214,0.1385,41.0000,-38.2500,-28.3750,351.0000,2.7500,-14.6250
261,2.0200,2.6700,9.3200,0.1985,-0.0753,-0.0731,43.2500,-42.8750,-25.3750,351.1875,3.4375,-15.0000
323,1.3600,2.5300,10.9000,-0.4691,-0.6349,0.3774,46.5000,-57.8750,-15.5625,350.7500,5.3125,-14.3750
388,1.3400,2.3700,9.5100,-0.4767,0.0458,0.1920,49.1875,-66.7500,-21.0625,349.8750,6.3125,-12.3125
451,1.3900,1.0400,8.6600,-1.7072,0.3371,0.3087,52.0000,-65.0000,-27.6875,349.0625,5.5000,-8.8125
512,-0.0500,1.9100,3.1300,-3.2441,-0.5814,0.7167,53.0625,-59.8750,-31.5000,347.8750,6.1875,-1.3125
575,1.0300,-0.6700,9.3500,1.1781,-0.2891,-0.7363,49.8750,-23.5625,-47.0000,347.0625,8.5625,6.7500
639,1.2300,-0.5700,9.5500,0.7221,0.5356,0.0796,51.5625,-25.6875,-47.2500,349.0000,7.1875,4.1875
702,1.4300,-0.3000,9.2800,0.0153,-0.0360,-0.2247,53.2500,-27.5000,-45.8750,349.9375,7.1875,3.0000
763,0.9600,-0.8700,9.3400,-0.3545,0.1320,0.0535,52.7500,-25.2500,-43.6875,349.9375,6.8750,4.1250
826,1.2900,-0.4500,9.5600,0.2923,0.0633,-0.0098,53.6875,-15.6875,-43.2500,349.9375,6.8750,4.1875
889,1.3200,-0.9000,9.4200,-0.0851,0.0567,0.0175,52.1875,-17.0625,-44.2500,349.9375,6.9375,4.3125
951,1.3400,-0.7300,9.3200,-0.0611,-0.0164,0.0033,51.7500,-16.3750,-46.2500,349.9375,6.9375,4.3125
1014,1.2000,-0.7200,9.3400,-0.0044,0.0098,0.0033,50.0000,-17.1875,-46.6875,349.9375,6.9375,4.1875
1075,1.2400,-0.6600,9.3400,0.0742,0.0120,0.0055,49.2500,-16.1875,-46.8750,349.9375,6.9375,4.2500
1140,1.2500,-0.7800,9.2300,-0.0196,-0.0033,0.0011,49.2500,-15.8750,-46.8750,349.9375,6.9375,4.2500
1201,1.2700,-0.7000,9.2600,-0.0436,-0.0120,0.0022,49.2500,-16.6875,-45.6875,349.9375,7.0000,4.2500
1264,1.2400,-0.6800,9.3300,0.0033,0.0044,-0.0022,50.0000,-16.6875,-46.1875,349.9375,7.0000,4.1875
1326,1.2500,-0.6800,9.3000,0.0436,0.0098,0.0033,49.6875,-17.5000,-46.1875,349.9375,7.0000,4.1875
1390,1.2600,-0.6800,9.2100,-0.0055,0.0022,0.0000,50.3750,-16.7500,-45.3750,349.9375,7.0000,4.1875
1452,1.2400,-0.7100,9.2300,-0.0229,-0.0087,0.0000,49.7500,-17.1875,-45.7500,349.9375,7.0000,4.1875
1514,1.2500,-0.6600,9.2800,-0.0153,-0.0022,0.0011,48.5625,-16.0000,-47.0000,349.9375,7.0000,4.1250
1576,1.2400,-0.6600,9.3100,0.0284,0.0076,0.0000,49.3750,-17.1875,-44.1875,349.9375,7.0625,4.1250
1641,1.2600,-0.7000,9.2700,0.0131,0.0044,0.0011,50.0625,-16.3750,-45.2500,349.9375,7.0625,4.1250
1702,1.2300,-0.6800,9.2600,-0.0142,-0.0022,0.0011,49.7500,-17.1875,-46.5000,349.9375,7.0625,4.1250
1765,1.2500,-0.6800,9.3100,-0.0153,-0.0044,-0.0022,49.3750,-17.1875,-47.0000,349.9375,7.0625,4.1250
1827,1.2400,-0.6400,9.2900,0.0251,0.0033,0.0055,49.7500,-17.1875,-45.7500,349.9375,7.0625,4.1250
1890,1.2400,-0.7100,9.3000,0.0065,0.0033,0.0000,49.3750,-17.1875,-46.1875,349.9375,7.0625,4.1250
1953,1.2400,-0.6700,9.2700,-0.0044,-0.0011,0.0011,50.3750,-17.1875,-47.2500,349.9375,7.0625,4.1250
2014,1.1400,-0.5800,9.0500,-0.0087,-0.0044,-0.0055,50.3750,-16.7500,-46.5625,349.9375,7.0625,4.0625
2080,1.2400,-0.7100,9.2900,0.0153,0.0022,0.0065,49.7500,-16.7500,-47.6875,349.9375,7.1250,4.0625
2142,1.2500,-0.7000,9.3500,0.0120,0.0022,0.0022,49.7500,-17.5000,-45.2500,349.9375,7.1250,4.0625
2206,1.2300,-0.6700,9.3100,-0.0033,-0.0055,-0.0022,50.3750,-16.3750,-46.5000,349.9375,7.1250,4.0625
2269,1.2400,-0.6600,9.2900,-0.0065,0.0033,-0.0011,49.3750,-16.7500,-45.3750,349.9375,7.1250,4.0625
2333,1.2300,-0.6600,9.3100,0.0055,0.0000,0.0033,50.0625,-17.8750,-45.7500,349.9375,7.1250,4.0625
2395,1.2400,-0.6700,9.2600,0.0109,0.0044,-0.0011,49.3750,-17.8750,-46.5000,349.9375,7.1250,4.0625
2460,1.2700,-0.6200,9.3800,-0.0022,0.0033,0.0000,49.7500,-17.1875,-46.8750,349.9375,7.1250,4.0625
2523,1.2300,-0.6800,9.3000,-0.0044,0.0000,-0.0011,49.0000,-17.1875,-47.2500,349.9375,7.1250,4.0625
2586,1.2500,-0.6600,9.2900,0.0065,0.0022,0.0033,45.3750,-13.5000,-44.1875,349.9375,7.1875,4.0625
2651,1.2600,-0.7100,9.3300,0.0207,0.0022,0.0011,41.6875,-14.5625,-40.2500,349.9375,7.1875,4.0000
2714,1.2400,-0.6700,9.3000,0.0295,0.0033,0.0109,42.3750,-15.3750,-38.0000,349.9375,7.1875,4.0000
2776,1.2400,-0.6500,9.2700,-0.0305,-0.0065,-0.0011,40.5625,-16.7500,-39.5000,349.9375,7.1875,4.0625
2841,1.2400,-0.6600,9.3500,-0.0338,-0.0065,0.0000,40.5625,-19.3750,-38.6875,349.9375,7.1875,4.0000
2903,1.2400,-0.6400,9.3600,0.0185,0.0022,0.0022,40.2500,-19.6875,-40.2500,349.8750,7.1875,4.0000
2966,1.2300,-0.6300,9.2900,0.0415,0.0055,0.0033,40.2500,-19.3750,-38.6875,349.9375,7.1875,4.0000
3030,1.2300,-0.7000,9.2600,-0.0196,-0.0011,-0.0011,40.2500,-19.0000,-40.6875,349.9375,7.1875,4.0000
3094,1.2400,-0.6900,9.2900,-0.0196,-0.0044,0.0033,40.5625,-18.5625,-40.6875,349.9375,7.1875,4.0000
3157,1.2300,-0.6700,9.2800,-0.0044,0.0011,-0.0022,39.8750,-18.5625,-40.6875,349.9375,7.1875,4.0000
3221,1.2300,-0.6800,9.3000,0.0120,0.0022,0.0000,40.2500,-17.8750,-39.8750,349.8750,7.1875,4.0000
3283,1.2400,-0.6500,9.3000,0.0131,0.0022,0.0000,40.5625,-17.8750,-41.0625,349.8750,7.1875,4.0000
3347,1.2300,-0.6700,9.3000,0.0033,-0.0011,-0.0065,39.8750,-17.1875,-39.0625,349.9375,7.1875,4.0000
3412,1.2500,-0.7100,9.2800,0.0033,0.0000,0.0033,39.8750,-17.8750,-41.0625,349.9375,7.1875,4.0000
3474,1.1800,-0.7100,9.2300,0.0742,0.0273,0.0000,40.2500,-18.5625,-39.8750,349.8750,7.1875,3.9375
3537,1.2400,-0.6900,9.3000,0.0524,-0.0033,0.0022,39.0625,-17.5000,-40.6875,349.8750,7.1875,3.9375
3603,1.2500,-0.6700,9.2100,-0.0131,0.0033,-0.0033,40.5625,-17.8750,-41.5000,349.8750,7.1875,3.9375
3665,1.2500,-0.7200,9.2900,-0.0360,-0.0131,-0.0033,39.8750,-17.8750,-40.2500,349.8750,7.1875,4.0000
3728,1.2300,-0.6900,9.2600,-0.0393,-0.0033,-0.0033,41.0000,-17.5000,-40.6875,349.8750,7.1875,3.9375
3792,1.2100,-0.6300,9.3100,-0.0098,0.0011,-0.0011,40.2500,-17.8750,-39.8750,349.8750,7.1875,3.9375
3855,1.2700,-0.8500,9.3400,-0.0109,-0.0011,-0.0142,40.5625,-19.0000,-40.6875,349.9375,7.1875,3.9375
3917,1.2400,-0.7200,9.3300,0.0218,0.0164,-0.0338,41.0000,-17.8750,-39.8750,350.0625,7.1875,3.9375
3979,1.2400,-0.5900,9.3100,0.0502,0.0044,-0.0011,39.8750,-18.1875,-39.8750,350.1250,7.1875,3.9375
4043,1.2100,-0.7100,9.2700,0.0065,-0.0011,0.0033,39.5000,-19.3750,-38.6875,350.1250,7.1875,4.0000
4105,1.2400,-0.6800,9.2400,-0.0022,0.0000,0.0044,38.7500,-18.1875,-40.2500,350.1250,7.1875,4.0000
4168,1.2500,-0.7000,9.2900,-0.0284,-0.0033,-0.0044,39.5000,-19.0000,-39.8750,350.1250,7.1875,4.0000
4232,1.2400,-0.6500,9.3100,0.0076,-0.0011,-0.0011,39.8750,-18.5625,-40.6875,350.1250,7.1875,3.9375
4295,1.2300,-0.6500,9.2700,0.0131,0.0033,0.0044,39.0625,-18.1875,-40.6875,350.1250,7.1875,3.9375
4359,1.2400,-0.7000,9.2600,-0.0218,0.0000,-0.0065,39.0625,-18.5625,-41.0625,350.1250,7.1875,4.0000
4423,1.2300,-0.6700,9.2900,-0.0164,0.0000,-0.0022,40.2500,-19.0000,-40.2500,350.1250,7.1875,3.9375
4485,1.2500,-0.6400,9.3300,0.0033,0.0087,0.0055,39.5000,-18.1875,-39.5000,350.1250,7.1875,3.9375
4549,1.2500,-0.6200,9.2800,0.0295,0.0022,0.0087,39.0625,-18.5625,-40.6875,350.1250,7.1875,3.8750
4613,1.2300,-0.6700,9.2800,-0.0251,0.0011,-0.0022,39.0625,-19.0000,-39.8750,350.1250,7.1875,3.8750
4676,1.2200,-0.6400,9.3200,-0.0153,-0.0065,0.0033,39.0625,-18.5625,-41.5000,350.1250,7.1875,3.8750
4740,1.2300,-0.6700,9.3200,0.0207,0.0022,0.0055,39.0625,-19.0000,-39.8750,350.1250,7.1875,3.8750
4805,1.2400,-0.6000,9.2700,0.0393,0.0087,0.0098,38.7500,-17.8750,-39.8750,350.1250,7.1875,3.8125
4866,1.2300,-0.6800,9.3000,-0.0207,0.0055,-0.0022,39.5000,-20.0625,-39.8750,350.1250,7.1875,3.8125
4931,1.2300,-0.6700,9.3300,-0.0109,-0.0033,0.0065,39.1875,-18.5625,-41.0625,350.1250,7.1875,3.7500
4995,1.2000,-0.5500,9.3200,0.0447,0.0065,0.0076,39.5625,-18.5625,-40.6875,350.0625,7.1875,3.6875
5058,2.0500,-2.4800,9.3700,0.0578,0.0164,-0.0436,40.3750,-19.0000,-40.2500,350.1875,7.1875,3.6875
5119,1.2900,-0.6000,9.4100,0.0654,0.0098,-0.0196,39.5625,-18.1875,-38.6875,350.1875,7.1875,3.6875
5182,1.2100,-0.7000,9.2500,-0.0316,-0.0109,0.0065,39.1875,-18.5625,-40.3750,350.1875,7.1875,3.8125
5245,1.2400,-0.6100,9.3300,-0.0502,-0.0087,-0.0098,38.5000,-19.0000,-39.1875,350.1875,7.1875,3.7500
5309,1.2300,-0.6100,9.3400,0.0033,-0.0033,-0.0055,40.0000,-19.3750,-40.2500,350.1875,7.1875,3.6875
5370,1.2200,-0.6100,9.3300,0.0545,0.0120,0.0065,39.1875,-18.1875,-38.6875,350.1875,7.1875,3.6875
5435,1.2400,-0.6800,9.2700,-0.0175,-0.0011,-0.0044,39.5625,-19.0000,-39.5625,350.1875,7.1875,3.7500
5497,1.2400,-0.6600,9.2600,-0.0524,-0.0087,-0.0109,40.3750,-17.8750,-40.7500,350.1875,7.1875,3.7500
5562,1.2300,-0.6400,9.3000,0.0164,-0.0022,0.0076,38.1875,-18.5625,-40.3750,350.1875,7.1875,3.7500
5624,1.2100,-0.6400,9.2800,0.0251,0.0131,-0.0011,38.8750,-18.1875,-40.0000,350.1875,7.1875,3.7500
5685,1.3400,-0.6800,9.2800,-0.1669,-0.0305,-0.1014,39.1875,-19.0000,-40.6875,350.3750,7.2500,3.9375
5749,1.3400,-0.7400,9.1000,-0.2367,0.0153,-0.0720,40.3750,-17.5000,-39.5000,350.4375,7.1250,3.7500
5814,1.1000,-0.5600,9.5300,-0.0196,-0.0316,0.0829,40.0000,-17.8750,-39.8750,350.3125,7.0625,3.5000
5876,1.1700,-0.5600,9.2700,0.0644,-0.0087,0.0251,38.5000,-18.1875,-39.5000,350.1875,7.2500,3.8125
5938,1.2800,-0.7700,9.2000,-0.0360,0.0251,-0.0273,38.5000,-18.5625,-40.2500,350.2500,7.1875,3.8125
6003,1.2100,-0.6800,9.2800,-0.0654,-0.0382,0.0251,40.0000,-17.8750,-39.5000,350.1875,7.1875,3.8125
6066,1.1700,-0.5500,9.3800,0.0665,0.0153,0.0251,39.1875,-18.1875,-39.5000,350.1875,7.2500,3.7500
6129,1.2800,-0.6400,9.2900,0.0153,0.0011,-0.0087,40.0000,-18.5625,-40.6875,350.1875,7.2500,3.8125
6192,1.1900,-0.8400,9.3200,0.0142,0.0229,0.0142,40.3750,-18.1875,-40.2500,350.1875,7.2500,3.8125
6257,1.1300,-0.3700,9.4200,0.0284,-0.0273,0.0240,39.1875,-17.8750,-39.0625,350.0625,7.1875,3.6250
6318,1.2100,-0.6400,9.4100,0.0633,0.0153,-0.0131,38.1875,-18.5625,-39.2500,350.1250,7.1250,3.6875
6381,1.2400,-0.6000,9.2600,0.0589,-0.0055,0.0022,40.0000,-18.5625,-38.7500,350.0625,7.1875,3.7500
6445,1.2100,-0.7500,9.2600,-0.0469,0.0011,0.0011,39.5625,-18.1875,-40.3750,350.1250,7.1875,3.7500
6508,1.2300,-0.5100,9.3300,-0.0851,-0.0164,0.0033,38.5000,-17.5000,-40.3750,350.0625,7.1875,3.7500
6570,1.1700,-0.5200,9.4100,0.0425,0.0087,0.0109,39.5625,-18.5625,-40.3750,350.0625,7.1875,3.6875
6632,1.1900,-0.6300,9.3200,0.0382,0.0098,-0.0098,40.0000,-18.1875,-39.0625,350.0625,7.1875,3.6875
6696,1.2600,-0.6600,9.2300,-0.0185,-0.0044,0.0000,38.8750,-18.5625,-39.5625,350.0625,7.1875,3.6875
6759,1.2300,-0.6800,9.2900,-0.0436,-0.0065,-0.0044,40.0000,-17.8750,-39.5625,350.0625,7.1875,3.7500
6821,1.2100,-0.5500,9.3200,0.0033,-0.0011,0.0011,40.0000,-17.8750,-40.3750,350.0625,7.1875,3.6250
6882,1.2100,-0.6300,9.3000,0.0284,0.0175,-0.0011,38.8750,-17.5000,-39.5625,350.0625,7.1875,3.6875
6947,1.2300,-0.6300,9.2500,0.0011,-0.0055,0.0044,39.1875,-18.1875,-40.0000,350.0625,7.1875,3.6875
7009,1.2300,-0.6200,9.2800,-0.0316,-0.0033,-0.0011,39.1875,-18.1875,-40.3750,350.0625,7.1875,3.6875
7071,1.1900,-0.5800,9.3300,-0.0044,0.0011,0.0055,39.1875,-17.8750,-40.7500,350.0625,7.1875,3.6250
7133,1.2100,-0.6100,9.3200,0.0393,0.0055,-0.0033,40.3750,-18.1875,-39.1875,350.0625,7.1875,3.6250
7198,1.2200,-0.6700,9.2900,-0.0076,-0.0022,0.0033,39.5625,-18.5625,-40.3750,350.0625,7.1875,3.6875
7259,1.2200,-0.6600,9.3100,-0.0305,-0.0033,-0.0011,40.3750,-17.8750,-39.5000,350.0625,7.1875,3.6875
7322,1.2400,-0.5700,9.4200,-0.0022,0.0000,-0.0022,40.0000,-18.1875,-40.6875,350.0625,7.1875,3.6250
7384,1.1900,-0.5400,9.2400,0.0327,0.0044,-0.0022,40.3750,-19.3750,-40.6875,350.0625,7.1875,3.6250
7448,1.1900,-0.5700,9.3000,-0.0065,0.0000,0.0000,39.1875,-18.1875,-40.2500,350.0625,7.1875,3.6250
7510,1.2100,-0.6200,9.3000,-0.0120,-0.0044,0.0055,40.0000,-17.8750,-39.8750,350.0625,7.1875,3.6875
7572,1.2400,-0.6000,9.3100,-0.0044,0.0011,0.0011,39.1875,-18.5625,-40.6875,350.0625,7.1875,3.6250
7637,1.1900,-0.6100,9.3000,0.0153,0.0044,-0.0044,38.8750,-18.1875,-39.8750,350.0625,7.1875,3.6250
7700,1.2200,-0.6000,9.2900,0.0164,0.0033,0.0055,39.5625,-18.1875,-40.2500,350.0625,7.1875,3.6250
7764,1.2200,-0.6300,9.2900,-0.0065,-0.0033,0.0011,41.0625,-18.1875,-40.2500,350.0625,7.1875,3.6250
7828,1.2100,-0.5900,9.3200,-0.0033,-0.0011,0.0011,40.0000,-19.3750,-41.5000,350.0625,7.1875,3.5625
7890,1.2200,-0.6000,9.3000,0.0044,-0.0011,0.0022,39.5625,-18.1875,-41.0625,350.0625,7.1875,3.5625
7954,1.2100,-0.6100,9.3000,0.0065,-0.0011,0.0011,39.1875,-17.8750,-40.2500,350.0625,7.1875,3.5625
8018,1.2100,-0.6100,9.3100,0.0022,-0.0011,0.0011,39.5625,-17.8750,-40.2500,350.0625,7.1875,3.5625
8081,1.1800,-0.5900,9.2800,-0.0098,0.0011,0.0000,40.0000,-19.3750,-40.2500,350.0625,7.1875,3.5625
8145,1.2100,-0.6200,9.3300,-0.0011,0.0022,0.0011,40.0000,-18.5625,-41.0625,350.0625,7.1875,3.5625
8209,1.2200,-0.6000,9.2800,0.0087,0.0000,0.0022,39.1875,-18.1875,-41.0625,350.0625,7.1875,3.5625
8271,1.2100,-0.6100,9.3200,0.0022,0.0000,0.0022,38.8750,-18.5625,-39.8750,350.0625,7.1875,3.5625
8336,1.2000,-0.6200,9.3000,-0.0033,-0.0033,-0.0022,39.1875,-17.8750,-41.0625,350.0625,7.1875,3.5625
8399,1.2100,-0.5900,9.3100,0.0011,0.0033,0.0000,40.0000,-17.5000,-40.6875,350.0625,7.1875,3.5625
8461,1.2100,-0.6300,9.3300,0.0065,0.0044,0.0000,39.1875,-18.1875,-40.6875,350.0625,7.1875,3.5625
8524,1.2300,-0.6300,9.3300,0.0011,0.0000,0.0011,40.0000,-17.8750,-40.2500,350.0625,7.1875,3.5625
8588,1.2200,-0.6100,9.3200,-0.0033,0.0000,0.0022,40.3750,-18.5625,-40.6875,350.0625,7.1875,3.5625
8651,1.2100,-0.6100,9.3100,-0.0033,-0.0011,0.0000,39.1875,-18.5625,-39.8750,350.0625,7.1875,3.5625
8714,1.2100,-0.6100,9.3200,-0.0011,-0.0022,-0.0011,39.5625,-17.8750,-40.6875,350.0625,7.1875,3.5625
8779,1.2100,-0.6000,9.3200,0.0022,0.0022,-0.0011,39.5625,-18.1875,-39.8750,350.0625,7.1875,3.5625
8841,1.2400,-0.6300,9.3200,0.0044,0.0022,-0.0011,39.1875,-17.8750,-39.1875,350.0625,7.1875,3.5625
8905,1.2100,-0.6300,9.2800,-0.0033,-0.0022,0.0011,39.5625,-17.8750,-40.2500,350.0625,7.1875,3.5625
8969,1.2300,-0.6200,9.3000,0.0022,-0.0011,0.0011,40.0000,-18.5625,-39.5000,350.0625,7.1875,3.5625
9032,1.2000,-0.6000,9.3100,-0.0011,-0.0022,-0.0022,39.1875,-18.1875,-40.6875,350.0625,7.1875,3.5625
9097,1.2300,-0.6200,9.3000,0.0022,0.0011,0.0000,40.0000,-19.0000,-39.8750,350.0625,7.1875,3.5625
9161,1.2100,-0.6100,9.2700,0.0000,0.0011,0.0000,40.0000,-19.0000,-39.8750,350.0625,7.1875,3.5625
9222,1.2200,-0.6000,9.3100,-0.0022,-0.0044,-0.0011,40.0000,-18.1875,-41.0625,350.0625,7.1875,3.5625
9288,1.1900,-0.6200,9.3400,-0.0011,0.0022,-0.0011,40.3750,-18.5625,-40.6875,350.0625,7.1875,3.5625
9351,1.2200,-0.6100,9.3200,0.0000,0.0022,0.0022,39.1875,-17.8750,-41.7500,350.0625,7.1875,3.5625
9414,1.2100,-0.6100,9.3200,0.0022,0.0011,0.0011,39.5625,-18.5625,-40.2500,350.0625,7.1875,3.5625
9477,1.2200,-0.6200,9.3200,-0.0011,0.0011,0.0000,40.0000,-18.1875,-40.6875,350.0625,7.1875,3.5625
9541,1.2100,-0.6200,9.3000,-0.0044,0.0011,0.0000,40.3750,-18.5625,-39.5000,350.0625,7.1875,3.5625
9603,1.2200,-0.6100,9.3200,-0.0033,-0.0011,-0.0011,39.5625,-18.5625,-40.2500,350.0625,7.1875,3.5625
9669,1.1900,-0.6000,9.2900,0.0033,0.0000,-0.0033,38.8750,-18.1875,-41.0625,350.0625,7.1875,3.5625
9731,1.2200,-0.6100,9.3100,0.0022,0.0011,0.0011,40.3750,-17.8750,-40.2500,350.0625,7.1875,3.5625
9796,1.2000,-0.6100,9.3000,-0.0022,-0.0022,-0.0011,40.3750,-18.1875,-41.0625,350.0625,7.1875,3.5625
9860,1.2100,-0.5800,9.2800,0.0000,0.0011,0.0000,39.1875,-18.1875,-41.5000,350.0625,7.1875,3.5625
9923,1.2100,-0.6100,9.3000,0.0011,-0.0011,-0.0011,40.0000,-18.1875,-40.2500,350.0625,7.1875,3.5625
9987,1.2200,-0.6000,9.3200,0.0000,-0.0022,0.0000,39.1875,-19.0000,-40.6875,350.0625,7.1875,3.5625
10051,1.2200,-0.5900,9.3000,0.0011,-0.0022,0.0022,40.3750,-18.5625,-40.6875,350.0625,7.1875,3.5625
10113,1.2100,-0.6000,9.3000,-0.0044,0.0011,0.0000,39.5625,-18.1875,-40.2500,350.0625,7.1875,3.5625
10176,1.1900,-0.5900,9.3100,0.0011,0.0000,0.0000,40.0000,-17.8750,-40.6875,350.0625,7.1875,3.5625
10240,1.2000,-0.6200,9.3400,0.0011,0.0011,-0.0011,39.5625,-18.5625,-40.2500,350.0625,7.1875,3.5625
10303,1.2000,-0.6300,9.3000,-0.0011,0.0011,-0.0011,40.0000,-19.0000,-40.2500,350.0625,7.1875,3.5625
10367,1.2000,-0.6000,9.2900,-0.0011,0.0000,-0.0022,40.0000,-18.5625,-40.2500,350.0625,7.1875,3.5625
10431,1.2100,-0.6000,9.3200,0.0000,-0.0011,-0.0011,40.6875,-18.1875,-40.6875,350.0625,7.1875,3.5625
10493,1.2100,-0.5900,9.3200,-0.0022,-0.0011,-0.0022,39.1875,-17.8750,-40.6875,350.0625,7.1875,3.5625
10557,1.2100,-0.5700,9.2800,0.0000,0.0000,0.0000,39.5625,-18.5625,-40.2500,350.0625,7.1875,3.5625
10621,1.2000,-0.6200,9.3100,-0.0033,-0.0011,0.0022,40.3750,-18.5625,-39.5000,350.0625,7.1875,3.5625
10684,1.2100,-0.6000,9.3100,0.0011,0.0033,0.0022,39.5625,-18.5625,-41.0625,350.0625,7.1875,3.5625
10748,1.1900,-0.6100,9.3000,0.0055,0.0000,0.0011,39.1875,-18.5625,-40.6875,350.0625,7.1875,3.5625
10812,1.2100,-0.6200,9.3100,0.0000,-0.0055,-0.0011,39.1875,-18.5625,-39.8750,350.0625,7.1875,3.5625
10874,1.2000,-0.5900,9.3000,-0.0033,0.0022,-0.0011,40.0000,-18.1875,-41.0625,350.0625,7.1875,3.5625
10939,1.2100,-0.6300,9.3200,-0.0011,0.0011,-0.0022,40.0000,-18.5625,-41.0625,350.0625,7.1875,3.5625
11002,1.2100,-0.5800,9.3300,0.0011,-0.0011,0.0022,40.3750,-19.0000,-40.6875,350.0625,7.1875,3.5625
11065,1.2100,-0.6200,9.3000,-0.0033,-0.0022,0.0011,40.0000,-18.5625,-41.0625,350.0625,7.1875,3.6250
11127,1.2100,-0.6000,9.3200,-0.0011,-0.0011,0.0000,39.1875,-19.6875,-40.6875,350.0625,7.1875,3.5625
11189,1.2100,-0.5800,9.3100,0.0262,0.0022,0.0022,40.3750,-18.1875,-41.0625,350.0625,7.1875,3.5625
11253,1.2200,-0.6000,9.3100,-0.0065,0.0000,0.0011,40.0000,-19.3750,-40.2500,350.0625,7.1875,3.5625
11315,1.2200,-0.5900,9.2900,-0.0022,-0.0011,0.0000,39.5625,-18.5625,-40.6875,350.0625,7.1875,3.5625
11379,1.2000,-0.5700,9.3000,-0.0011,0.0000,0.0022,39.1875,-19.6875,-41.7500,350.0625,7.1875,3.5625
11442,1.1900,-0.6100,9.3100,0.0011,0.0000,0.0000,39.5625,-19.6875,-40.2500,350.0625,7.1875,3.5625
11505,1.1900,-0.5500,9.2700,0.0098,0.0033,0.0000,40.0000,-18.5625,-40.6875,350.0625,7.1875,3.5000
11569,1.2000,-0.5700,9.2900,-0.0033,0.0011,0.0022,40.3750,-20.0625,-41.0625,350.0625,7.1875,3.5625
11633,1.1800,-0.6100,9.3200,-0.0207,-0.0022,-0.0033,38.8750,-19.0000,-40.6875,350.0625,7.1875,3.5625
11694,1.2300,-0.6000,9.3100,-0.0251,-0.0033,-0.0011,40.6875,-19.6875,-39.8750,350.0625,7.1875,3.6250
11759,1.1900,-0.6100,9.3100,0.0316,-0.0044,0.0065,40.0000,-18.1875,-39.8750,350.0625,7.1875,3.6250
11823,1.2100,-0.6900,9.3300,-0.0076,0.0022,0.0065,39.5625,-19.0000,-40.6875,350.0625,7.1875,3.6250
11885,1.1900,-0.6400,9.3200,-0.0240,-0.0065,0.0022,39.5625,-19.3750,-41.0625,350.0625,7.1250,3.6250
11950,1.1000,-0.3800,9.1900,0.0371,0.0142,0.0098,40.0000,-19.0000,-40.2500,350.0000,7.1250,3.5625
12014,1.2000,-0.6500,9.2600,0.0164,0.0033,0.0033,39.5625,-18.8750,-39.5000,350.0000,7.1250,3.6250
12076,1.2000,-0.6900,9.3100,-0.0218,-0.0011,0.0022,39.5625,-18.5625,-40.2500,350.0625,7.1250,3.6875
12138,1.2300,-0.6200,9.3000,-0.0513,-0.0076,-0.0087,40.0000,-19.5625,-39.0625,350.0625,7.1250,3.6250
12203,1.1800,-0.5600,9.3700,0.0305,0.0065,0.0033,40.0000,-19.5625,-40.2500,350.0625,7.1250,3.5625
12265,1.2000,-0.5400,9.3200,0.0458,0.0098,0.0000,40.3750,-18.5000,-41.0625,350.0625,7.1250,3.6250
12327,1.2100,-0.6500,9.2900,-0.0011,0.0000,-0.0011,39.1875,-18.8750,-40.2500,350.0625,7.1250,3.6875
12390,1.2100,-0.6100,9.3200,-0.0404,-0.0065,0.0022,40.0000,-18.5000,-39.5000,350.0625,7.1250,3.6250
12453,1.2000,-0.5600,9.3700,0.0055,0.0000,0.0011,39.5625,-18.8750,-39.8750,350.0625,7.1250,3.6250
12516,1.2200,-0.5300,9.2700,0.0382,0.0044,0.0000,38.8750,-19.2500,-40.2500,350.0625,7.1250,3.5625
12578,1.2200,-0.6600,9.3000,0.0033,0.0033,0.0022,40.3750,-18.8750,-40.6875,350.0625,7.1250,3.6875
12639,1.2200,-0.6100,9.3100,-0.0338,-0.0087,-0.0022,40.6875,-18.8750,-39.5000,350.0625,7.1250,3.6875
12704,1.1800,-0.5700,9.3000,0.0076,0.0033,0.0000,39.1875,-18.8750,-39.0625,350.0625,7.1250,3.6250
12766,1.1900,-0.5800,9.3300,0.0196,0.0033,0.0044,40.0000,-18.8750,-40.2500,350.0625,7.1250,3.6250
12828,1.2200,-0.5900,9.3100,0.0065,0.0033,-0.0022,39.5625,-18.8750,-40.6875,350.0625,7.1250,3.6250
12890,1.2200,-0.6400,9.3200,-0.0415,-0.0011,-0.0044,39.1875,-18.5000,-40.2500,350.0625,7.1250,3.6875
12955,1.1800,-0.6000,9.3400,0.0218,0.0022,0.0055,41.0625,-18.8750,-39.8750,350.0625,7.1250,3.6875
13016,1.2100,-0.5800,9.2900,0.0207,0.0065,-0.0011,40.0000,-18.8750,-39.8750,350.0625,7.1250,3.6250
13079,1.1900,-0.6000,9.3000,0.0033,0.0011,0.0000,39.5625,-18.0625,-41.7500,350.0625,7.1250,3.6250
13141,1.1900,-0.5900,9.3000,-0.0229,0.0000,0.0033,40.6875,-18.5000,-40.6875,350.0625,7.1250,3.6250
13205,1.1900,-0.5400,9.3100,0.0109,-0.0044,0.0022,40.3750,-18.8750,-39.0625,350.0625,7.1250,3.6250
13267,1.2100,-0.5900,9.3000,0.0011,0.0044,-0.0011,40.0000,-19.2500,-41.5000,350.0625,7.1250,3.6875
13330,1.2400,-0.6600,9.2700,0.0120,-0.0044,0.0011,40.0000,-19.2500,-39.8750,350.0625,7.1250,3.6875
13391,1.2000,-0.6100,9.2800,-0.0262,-0.0055,0.0033,39.1875,-18.0625,-38.6875,350.0625,7.1250,3.6875
13456,1.2000,-0.5700,9.3500,-0.0011,0.0011,-0.0011,40.0000,-18.5625,-39.5000,350.0625,7.1250,3.6875
13518,1.1900,-0.5900,9.3100,0.0164,0.0044,0.0022,40.6875,-18.5625,-41.0625,350.0625,7.1250,3.6250
13580,1.2100,-0.6000,9.3000,0.0120,-0.0011,0.0011,40.0000,-18.1875,-41.0625,350.0625,7.1250,3.6875
13645,1.2000,-0.6200,9.2800,-0.0153,-0.0022,-0.0022,39.5625,-19.0000,-41.5000,350.0625,7.1250,3.6875
13707,1.2100,-0.6300,9.2900,-0.0185,-0.0022,-0.0022,40.0000,-19.0000,-40.6875,350.0625,7.1250,3.6875
13771,1.2000,-0.5900,9.3000,0.0044,0.0033,-0.0011,39.1875,-17.8750,-41.0625,350.0625,7.1250,3.6875
13834,1.2300,-0.6100,9.3300,0.0120,0.0000,0.0033,39.1875,-18.5625,-40.2500,350.0625,7.1250,3.6875
13897,1.2100,-0.6200,9.3300,-0.0011,0.0022,0.0000,40.0000,-18.1875,-39.8750,350.0625,7.1250,3.6875
13961,1.2200,-0.6100,9.3000,-0.0120,-0.0033,0.0000,40.0000,-18.5625,-40.2500,350.0625,7.1250,3.6875
14026,1.2100,-0.6000,9.3200,0.0022,-0.0022,0.0011,40.0000,-18.1875,-40.2500,350.0625,7.1250,3.6875
14087,1.1900,-0.5900,9.2900,0.0055,0.0011,-0.0011,40.3750,-19.0000,-41.0625,350.0625,7.1250,3.6875
14152,1.2200,-0.6100,9.3100,0.0022,-0.0022,0.0011,38.8750,-18.5625,-40.6875,350.0625,7.1250,3.6875
14216,1.2100,-0.6200,9.3000,-0.0044,-0.0011,0.0022,40.3750,-18.5625,-40.6875,350.0625,7.1250,3.6875
14278,1.2000,-0.5900,9.3100,-0.0065,-0.0033,0.0022,40.0000,-18.5625,-41.5000,350.0625,7.1250,3.6875
14342,1.2100,-0.5900,9.3100,0.0065,0.0022,0.0000,40.3750,-19.0000,-41.5000,350.0625,7.1250,3.6875
14406,1.2200,-0.6000,9.3200,0.0022,0.0000,0.0000,40.0000,-19.6875,-40.6875,350.0625,7.1250,3.6875
14468,1.2100,-0.5900,9.2900,0.0033,0.0000,0.0000,40.0000,-19.0000,-40.2500,350.0625,7.1250,3.6875
14531,1.2100,-0.5900,9.3100,-0.0011,-0.0011,0.0000,39.1875,-18.1875,-40.6875,350.0625,7.1250,3.6875
14595,1.2100,-0.6100,9.3100,-0.0022,-0.0022,0.0011,40.0000,-18.1875,-39.5000,350.0625,7.1250,3.6875
14658,1.2100,-0.6100,9.3200,-0.0011,0.0022,0.0000,39.1875,-18.1875,-40.6875,350.0625,7.1250,3.6875
14722,1.2100,-0.5900,9.3300,0.0033,-0.0011,0.0022,39.5625,-19.0000,-39.8750,350.0625,7.1250,3.6875
14786,1.2000,-0.6200,9.3100,-0.0033,0.0011,-0.0011,39.5625,-18.5625,-39.8750,350.0625,7.1250,3.6875
14848,1.2000,-0.6300,9.3000,-0.0011,0.0000,0.0011,39.1875,-19.0000,-39.0625,350.0625,7.1250,3.6875
14912,1.2000,-0.6000,9.3100,0.0000,-0.0011,0.0000,40.3750,-18.5625,-40.2500,350.0625,7.1250,3.6875
14976,1.1900,-0.5900,9.3000,-0.0011,0.0000,0.0022,40.3750,-18.1875,-40.6875,350.0625,7.1250,3.6875
15039,1.2100,-0.6300,9.3400,0.0011,0.0033,0.0000,40.0000,-18.5625,-40.6875,350.0625,7.1250,3.6875
15103,1.2100,-0.6000,9.3100,0.0011,0.0055,0.0000,38.8750,-18.1875,-40.2500,350.0625,7.1250,3.6875
15167,1.2200,-0.6000,9.2800,-0.0011,0.0022,0.0011,39.1875,-18.1875,-40.2500,350.0625,7.1250,3.6875
15229,1.2100,-0.5900,9.3100,0.0000,0.0022,0.0000,39.5625,-18.5625,-40.6875,350.0625,7.1250,3.6875
15294,1.2100,-0.5900,9.3000,0.0011,0.0000,0.0011,39.5625,-18.5625,-40.2500,350.0625,7.1250,3.6875
15357,1.2100,-0.6000,9.3200,-0.0022,-0.0011,0.0000,40.3750,-18.5625,-41.5000,350.0625,7.1250,3.6875
15420,1.2100,-0.6100,9.2900,-0.0022,-0.0022,0.0000,40.0000,-18.5625,-41.0625,350.0625,7.1250,3.6875
15481,1.1800,-0.5900,9.3100,0.0044,0.0055,0.0011,39.5625,-19.0000,-40.2500,350.0625,7.1250,3.6875
15547,1.2200,-0.6100,9.3100,-0.0033,-0.0022,-0.0011,40.0000,-18.5625,-40.6875,350.0625,7.1250,3.6875
15609,1.2100,-0.6100,9.3000,-0.0044,-0.0011,-0.0022,40.3750,-18.5625,-40.6875,350.0625,7.1250,3.6875
15674,1.2000,-0.6100,9.3300,0.0022,-0.0011,0.0000,40.0000,-18.5625,-41.7500,350.0625,7.1250,3.6875
15737,1.2100,-0.5900,9.3100,0.0022,-0.0022,0.0000,40.6875,-17.8750,-40.2500,350.0625,7.1250,3.6875
15799,1.2100,-0.6100,9.3100,-0.0033,0.0000,0.0011,39.1875,-19.3750,-40.2500,350.0625,7.1250,3.6875
15863,1.2100,-0.5900,9.3000,0.0000,-0.0011,-0.0011,38.8750,-18.5625,-40.2500,350.0625,7.1250,3.6875
15927,1.2000,-0.6100,9.2900,-0.0011,0.0000,0.0011,38.8750,-18.5625,-40.6875,350.0625,7.1250,3.6875
15990,1.2000,-0.6000,9.3100,0.0011,0.0044,-0.0033,39.1875,-18.5625,-40.2500,350.0625,7.1250,3.6875
16054,1.1900,-0.6000,9.2900,-0.0011,0.0011,0.0011,40.3750,-18.1875,-40.6875,350.0625,7.1250,3.6875
16118,1.2200,-0.6000,9.3200,0.0000,-0.0011,-0.0011,40.3750,-18.1875,-40.6875,350.0625,7.1250,3.6875
16180,1.2100,-0.6200,9.3200,-0.0044,0.0022,0.0011,40.6875,-18.5625,-40.2500,350.0625,7.1250,3.6875
16245,1.2300,-0.6100,9.3200,-0.0011,0.0022,-0.0011,40.0000,-18.5625,-40.6875,350.0625,7.1250,3.6875
16308,1.2000,-0.5800,9.3200,0.0011,-0.0033,-0.0011,39.5625,-18.1875,-39.8750,350.0625,7.1250,3.6875
16371,1.2000,-0.6000,9.3100,0.0044,0.0044,0.0000,39.1875,-18.1875,-41.5000,350.0625,7.1250,3.6875
16433,1.2000,-0.6200,9.3000,-0.0033,-0.0022,0.0011,39.1875,-17.5000,-39.8750,350.0625,7.1250,3.6875
16498,1.2200,-0.5800,9.3100,0.0011,-0.0022,0.0000,39.1875,-18.5625,-40.6875,350.0625,7.1250,3.6875
16560,1.2000,-0.6200,9.2900,0.0022,0.0011,0.0011,39.5625,-19.0000,-41.0625,350.0625,7.1250,3.6875
16625,1.1800,-0.6100,9.3000,0.0022,0.0000,0.0000,40.3750,-18.5625,-40.6875,350.0625,7.1250,3.6875
16688,1.2000,-0.5900,9.3200,-0.0022,0.0000,-0.0033,38.8750,-17.8750,-40.2500,350.0625,7.1250,3.6875
16751,1.2200,-0.6100,9.3200,-0.0033,-0.0022,-0.0011,40.0000,-18.5625,-39.0625,350.0625,7.1250,3.6875
16814,1.2100,-0.5900,9.2900,0.0011,0.0000,-0.0022,40.0000,-18.1875,-40.6875,350.0625,7.1250,3.6875
16879,1.2100,-0.5900,9.3100,0.0033,0.0022,0.0011,39.1875,-17.8750,-41.5000,350.0625,7.1250,3.6875
16941,1.2100,-0.6000,9.3100,-0.0011,0.0011,0.0000,40.0000,-17.8750,-40.6875,350.0625,7.1250,3.6875
17006,1.2100,-0.5800,9.2900,-0.0033,-0.0033,0.0022,40.0000,-17.5000,-41.5000,350.0625,7.1250,3.6875
17069,1.1800,-0.6200,9.2900,0.0011,-0.0011,0.0000,39.5625,-17.5000,-41.0625,350.0625,7.1250,3.6875
17132,1.2300,-0.5900,9.3100,0.0022,-0.0011,0.0022,40.0000,-17.8750,-40.2500,350.0625,7.1250,3.6875
17195,1.2100,-0.6000,9.3000,-0.0011,0.0044,-0.0011,40.0000,-18.5625,-40.2500,350.0625,7.1250,3.6875
17260,1.1900,-0.6100,9.2800,0.0000,0.0033,0.0000,38.5000,-19.0000,-39.8750,350.0625,7.1250,3.6875
17321,1.2100,-0.6100,9.3000,0.0000,-0.0022,0.0011,39.5625,-18.5625,-41.0625,350.0625,7.1250,3.6875
17384,1.2300,-0.5900,9.3300,-0.0033,-0.0033,-0.0011,39.5625,-18.1875,-40.2500,350.0625,7.1250,3.6875
17448,1.2000,-0.6100,9.2900,0.0000,0.0011,0.0000,40.0000,-17.8750,-39.5000,350.0625,7.1250,3.6875
17512,1.1900,-0.5900,9.2900,0.0000,0.0000,0.0000,39.5625,-18.1875,-39.8750,350.0625,7.1250,3.6875
17575,1.1900,-0.5300,9.2900,-0.0142,0.0055,-0.0055,39.1875,-18.5625,-40.2500,350.0625,7.1250,3.6875
17639,1.2100,-0.7000,9.3000,-0.0611,-0.0055,-0.0305,39.5625,-17.8750,-40.6875,350.1250,7.1875,3.8750
17701,1.2000,-0.7000,9.2900,0.0131,0.0033,0.0011,40.3750,-17.5000,-40.2500,350.1250,7.1875,3.8750
17765,1.2300,-0.6700,9.2600,-0.0273,-0.0044,-0.0044,39.5625,-18.1875,-39.5000,350.1250,7.1875,3.8750
17830,1.1900,-0.6200,9.3000,0.0033,-0.0011,0.0022,39.1875,-17.5000,-40.2500,350.1250,7.1875,3.8750
17892,1.2100,-0.5900,9.3100,0.0175,0.0022,0.0022,39.5625,-17.5000,-41.0625,350.1250,7.1875,3.8125
17956,1.2000,-0.6900,9.3100,0.0218,0.0065,0.0131,38.8750,-18.1875,-41.5000,350.1250,7.1875,3.8125
18021,1.2100,-0.5900,9.2700,-0.0240,-0.0011,-0.0153,40.0000,-17.8750,-40.2500,350.0625,7.1875,3.7500
18082,1.2200,-0.6100,9.3100,0.0142,-0.0022,0.0076,39.5625,-18.1875,-40.2500,350.0625,7.1875,3.7500
18144,1.2000,-0.5600,9.3200,0.0229,0.0033,0.0065,39.1875,-17.5000,-41.0625,350.0625,7.1875,3.7500
18210,1.2100,-0.6500,9.3100,-0.0011,0.0011,-0.0022,39.5625,-19.0000,-39.8750,350.0625,7.1875,3.7500
18272,1.2100,-0.6000,9.3000,-0.0153,-0.0022,0.0022,40.6875,-18.1875,-40.2500,350.0625,7.1875,3.7500
18334,1.2000,-0.6000,9.3000,-0.0076,0.0000,0.0000,40.0000,-18.1875,-41.7500,350.0625,7.1875,3.7500
18396,1.2700,-0.0900,9.1900,0.3894,0.0425,0.0578,39.1875,-17.8750,-40.6875,349.9375,7.1875,3.3125
18461,1.2700,-0.7900,9.2700,-0.4549,-0.0404,-0.0676,39.5625,-18.5625,-40.2500,350.0000,7.1875,3.6250
18522,1.2300,-0.5900,9.3100,0.1276,-0.0382,0.0753,40.0000,-17.5000,-39.8750,350.0625,7.1875,3.6875
18585,1.1100,-0.2300,9.3400,0.0458,0.0425,-0.0185,39.5625,-18.5625,-40.6875,349.9375,7.1250,3.1250
18650,1.1900,-0.8600,9.4600,0.0033,-0.0120,0.0153,38.8750,-19.3750,-38.6875,350.0000,7.1875,3.5000
18713,1.2200,-0.3300,9.2300,0.0185,0.0022,-0.0076,40.0000,-18.5625,-41.5000,350.0000,7.1875,3.4375
18776,1.2000,-0.6800,9.2500,-0.1167,-0.0011,-0.0240,39.5625,-18.1875,-41.0625,350.0000,7.1875,3.6250
18839,1.2000,-0.7300,9.3100,-0.0436,-0.0142,0.0033,39.1875,-18.1875,-40.2500,350.0625,7.1875,3.7500
18901,1.1700,-0.5500,9.3400,0.0327,0.0065,0.0000,39.5625,-17.1875,-39.5000,350.0625,7.1875,3.6875
18964,1.2100,-0.4900,9.2800,0.1113,0.0087,0.0153,40.0000,-17.8750,-39.8750,350.0625,7.1875,3.6250
19028,1.2000,-0.6100,9.2700,-0.0524,0.0087,-0.0055,38.8750,-18.1875,-39.5000,350.0000,7.1875,3.6875
19090,1.2000,-0.6800,9.3100,-0.0742,-0.0207,-0.0022,39.5625,-17.8750,-41.5000,350.0625,7.1875,3.6875
19152,1.2000,-0.5200,9.3600,-0.0033,0.0055,0.0022,39.5625,-18.1875,-39.1875,350.0000,7.1875,3.6250
19216,1.2300,-0.5600,9.3100,0.0491,0.0076,0.0055,39.1875,-17.3750,-39.5000,350.0000,7.1875,3.6875
19281,1.2200,-0.7200,9.2900,0.0218,-0.0011,0.0065,40.0000,-17.7500,-40.2500,350.0000,7.1875,3.6250
19344,1.2200,-0.3700,9.2700,-0.0142,-0.0120,0.0022,40.6875,-18.5000,-39.5000,349.9375,7.1875,3.4375
19407,1.1900,-0.5800,9.3200,0.0240,0.0109,0.0044,39.5625,-17.7500,-41.0625,349.9375,7.1875,3.4375
19472,1.2100,-0.4800,9.2700,-0.0065,-0.0033,0.0033,39.5625,-17.7500,-41.0625,349.9375,7.1875,3.4375
19534,1.1900,-0.5900,9.3300,0.0044,-0.0022,0.0011,39.1875,-18.8750,-40.2500,349.9375,7.1875,3.4375
19599,1.2100,-0.4900,9.3000,0.0207,-0.0022,0.0098,40.6875,-18.5000,-41.5000,349.9375,7.1875,3.3750
19662,1.2100,-0.6000,9.3300,-0.0131,0.0055,-0.0022,39.5625,-18.0625,-41.0625,349.9375,7.1875,3.4375
19724,1.1800,-0.5500,9.3000,-0.0185,-0.0033,0.0011,39.5625,-17.3750,-39.5000,349.9375,7.1875,3.4375
19787,1.1900,-0.5700,9.3300,-0.0196,0.0000,-0.0033,38.5000,-18.0625,-39.5000,349.9375,7.1875,3.4375
19851,1.2000,-0.5600,9.3000,0.0142,0.0000,0.0000,39.5625,-17.7500,-39.8750,349.9375,7.1875,3.5000
19914,1.2000,-0.5900,9.3000,-0.0022,0.0011,0.0000,39.5625,-19.2500,-41.0625,349.9375,7.1875,3.5000
19978,1.2100,-0.5600,9.3000,-0.0153,-0.0011,0.0000,40.0000,-18.5000,-40.2500,349.9375,7.1875,3.5000
20042,1.2000,-0.5400,9.3200,0.0055,-0.0033,0.0022,39.5625,-18.0625,-41.0625,349.9375,7.1875,3.5000
20104,1.2200,-0.5700,9.2900,0.0065,0.0033,0.0000,40.3750,-18.0625,-39.8750,349.9375,7.1875,3.5000
20168,1.2000,-0.5700,9.2900,0.0022,0.0000,0.0000,40.0000,-18.0625,-40.6875,349.9375,7.1875,3.5000
20232,1.2000,-0.5600,9.3100,-0.0044,-0.0022,0.0000,39.5625,-18.0625,-39.8750,349.9375,7.1875,3.5000
20295,1.2200,-0.5200,9.3100,-0.0022,-0.0011,-0.0011,40.3750,-17.7500,-40.6875,349.9375,7.1875,3.5000
20359,1.1900,-0.5600,9.3200,-0.0055,0.0044,0.0011,40.0000,-17.7500,-41.0625,349.9375,7.1875,3.5000
20423,1.2000,-0.5700,9.3300,0.0044,0.0022,0.0011,40.3750,-17.7500,-40.2500,349.9375,7.1875,3.5000
20485,1.1800,-0.5600,9.3100,0.0055,0.0055,-0.0011,39.5625,-17.7500,-40.6875,349.9375,7.1875,3.5000
20550,1.2000,-0.5600,9.3000,-0.0033,-0.0033,-0.0011,39.1875,-17.7500,-40.2500,349.9375,7.1875,3.5000
20613,1.2100,-0.5600,9.3200,-0.0076,-0.0011,0.0000,40.0000,-18.0625,-41.0625,349.9375,7.1875,3.5000
20677,1.2000,-0.5600,9.3100,0.0000,-0.0022,0.0022,39.1875,-17.0625,-40.2500,349.9375,7.1875,3.5000
20738,1.2000,-0.5500,9.3000,0.0076,0.0065,0.0011,38.5000,-18.5000,-41.5000,349.9375,7.1875,3.5000
20803,1.2000,-0.5600,9.2900,-0.0022,0.0011,0.0011,39.1875,-18.5000,-39.8750,349.9375,7.1875,3.5000
20865,1.2200,-0.5800,9.2800,-0.0076,0.0022,-0.0022,40.0000,-18.8750,-41.5000,349.9375,7.1875,3.5000
20930,1.1900,-0.5600,9.3100,0.0011,-0.0033,0.0000,39.1875,-17.7500,-41.0625,349.9375,7.1875,3.5000
20993,1.2200,-0.5600,9.3200,0.0055,-0.0011,0.0000,39.5625,-17.7500,-41.5000,349.9375,7.1875,3.5000
21056,1.2200,-0.5500,9.3100,0.0011,-0.0011,0.0022,40.0000,-17.3750,-41.0625,349.9375,7.1875,3.5000
21120,1.2000,-0.5600,9.2900,-0.0033,-0.0022,0.0000,39.1875,-17.7500,-40.6875,349.9375,7.1875,3.5000
21184,1.2100,-0.5500,9.3000,-0.0011,-0.0033,0.0022,38.8750,-17.3750,-41.0000,349.9375,7.1875,3.5000
21246,1.2200,-0.5500,9.3100,0.0000,0.0011,0.0000,39.1875,-18.0625,-41.0625,349.9375,7.1875,3.5000
21312,1.1900,-0.5400,9.3000,0.0011,0.0044,0.0000,40.0000,-18.0625,-40.6875,349.9375,7.1875,3.5000
21375,1.2000,-0.5700,9.2900,0.0033,0.0022,0.0011,38.8750,-18.0625,-41.5000,349.9375,7.1875,3.5000
21437,1.2000,-0.5500,9.3000,-0.0033,0.0022,0.0000,39.1875,-18.8750,-41.0625,349.9375,7.1875,3.5000
21502,1.2000,-0.5500,9.3100,-0.0022,0.0022,0.0011,40.3750,-18.0625,-40.6875,349.9375,7.1875,3.5000
21566,1.1900,-0.5300,9.3200,-0.0033,-0.0011,0.0033,40.0000,-17.3750,-41.5000,349.9375,7.1875,3.5000
21629,1.2100,-0.5400,9.2800,0.0044,-0.0022,0.0011,39.1875,-17.7500,-39.8750,349.9375,7.1875,3.5000
21693,1.1900,-0.5600,9.3100,-0.0033,0.0000,0.0011,39.1875,-17.7500,-40.6875,349.9375,7.1875,3.5000
21756,1.2100,-0.5300,9.3100,-0.0033,-0.0011,0.0000,39.5625,-18.0625,-39.8750,349.9375,7.1875,3.5000
21820,1.2200,-0.5600,9.3100,-0.0011,0.0022,0.0022,40.0000,-17.7500,-41.5000,349.9375,7.1875,3.5000
21884,1.2100,-0.5300,9.3200,0.0011,0.0000,-0.0011,38.8750,-17.7500,-41.5000,349.9375,7.1875,3.5000
21947,1.1900,-0.5500,9.3100,0.0011,0.0022,0.0011,40.3750,-18.5000,-40.6875,349.9375,7.1875,3.5000
22011,1.2000,-0.5600,9.3100,-0.0044,0.0011,0.0033,40.0000,-18.0625,-41.5000,349.9375,7.1875,3.5000
22075,1.2100,-0.5600,9.2900,-0.0022,-0.0055,0.0000,40.3750,-17.3750,-39.8750,349.9375,7.1875,3.5000
22137,1.2100,-0.5500,9.3400,-0.0055,-0.0011,0.0033,39.5625,-17.3750,-40.2500,349.9375,7.1875,3.5000
22202,1.2100,-0.5500,9.3200,0.0022,0.0011,0.0000,40.0000,-18.0625,-40.2500,349.9375,7.1875,3.5000
22266,1.2100,-0.5600,9.3300,0.0000,-0.0011,0.0033,40.3750,-18.0625,-40.6875,349.9375,7.1875,3.5000
22329,1.1900,-0.5500,9.3100,-0.0011,-0.0011,0.0000,39.1875,-18.0625,-40.6875,349.9375,7.1875,3.5000
22392,1.1900,-0.5600,9.3200,-0.0033,-0.0011,0.0000,40.3750,-17.3750,-41.5000,349.9375,7.1875,3.5000
22455,1.2200,-0.5700,9.3000,0.0000,-0.0011,0.0000,40.0000,-17.7500,-40.6875,349.9375,7.1875,3.5000
22518,1.2000,-0.5600,9.3100,0.0011,-0.0044,-0.0011,39.1875,-18.0625,-39.5000,349.9375,7.1875,3.5000
22582,1.2100,-0.5800,9.3200,-0.0022,0.0011,0.0000,40.3750,-18.0625,-40.6875,349.9375,7.1875,3.5000
22646,1.2200,-0.5600,9.3100,-0.0033,0.0033,0.0011,40.0000,-18.5000,-40.2500,349.9375,7.1875,3.5000
22709,1.2000,-0.5300,9.3000,0.0022,-0.0033,0.0000,39.5625,-17.3750,-39.8750,349.9375,7.1875,3.5000
22774,1.2100,-0.5500,9.2800,0.0000,-0.0011,0.0011,39.5625,-17.3750,-41.0000,349.9375,7.1875,3.5000
22837,1.1800,-0.5500,9.3100,-0.0033,-0.0011,0.0011,40.0000,-18.0625,-40.6875,349.9375,7.1875,3.5000
22902,1.1900,-0.5600,9.3200,-0.0022,0.0011,0.0000,40.3750,-18.0625,-40.6875,349.9375,7.1875,3.5000
22965,1.2000,-0.5700,9.3300,0.0000,-0.0011,-0.0022,40.0000,-18.5000,-42.1875,349.9375,7.1875,3.5000
23028,1.2100,-0.5500,9.3000,-0.0011,0.0000,0.0011,40.6875,-18.5000,-40.6875,349.9375,7.1875,3.5000
23090,1.2100,-0.5400,9.3100,0.0000,0.0000,0.0022,40.6875,-17.0625,-41.0625,349.9375,7.1875,3.5000
23155,1.2100,-0.5500,9.3300,0.0022,0.0033,0.0011,40.0000,-17.3750,-41.0625,349.9375,7.1875,3.5000
23217,1.2000,-0.5500,9.3100,0.0011,0.0044,0.0011,40.0000,-18.5000,-41.0000,349.9375,7.1875,3.5000
23282,1.2000,-0.5600,9.3100,0.0022,-0.0011,0.0000,40.0000,-18.5000,-40.2500,349.9375,7.1875,3.5000
23345,1.2000,-0.5600,9.3100,0.0000,-0.0011,0.0000,41.0625,-18.5000,-39.5000,349.9375,7.1875,3.5000
23408,1.2000,-0.5700,9.3300,0.0022,0.0011,0.0011,40.0000,-18.8750,-39.8750,349.9375,7.1875,3.5000
23471,1.2000,-0.5500,9.3000,-0.0011,-0.0011,-0.0011,40.0000,-18.0625,-41.5000,349.9375,7.1875,3.5000
23536,1.1900,-0.5600,9.2900,0.0033,-0.0022,0.0000,39.5625,-18.0625,-39.8750,349.9375,7.1875,3.5000
23598,1.2200,-0.5600,9.3000,-0.0011,0.0000,0.0011,40.0000,-19.2500,-41.5000,349.9375,7.1875,3.5000
23663,1.2100,-0.5600,9.3100,0.0000,0.0044,0.0000,40.0000,-18.5000,-40.6875,349.9375,7.1875,3.5000
23726,1.2200,-0.5600,9.2900,-0.0011,-0.0011,0.0011,41.0625,-17.3750,-41.0625,349.9375,7.1875,3.5000
23789,1.1900,-0.5500,9.3100,0.0000,-0.0011,-0.0011,39.5625,-17.7500,-40.6875,349.9375,7.1875,3.5000
23853,1.1800,-0.5800,9.3100,-0.0011,0.0000,0.0000,39.5625,-18.8750,-40.6875,349.9375,7.1875,3.5000
23918,1.2000,-0.5400,9.2900,0.0000,0.0000,0.0011,39.1875,-18.0625,-40.6875,349.9375,7.1875,3.5000
23980,1.1900,-0.5500,9.2900,0.0000,0.0011,0.0011,39.5625,-18.5000,-41.0625,349.9375,7.1875,3.5000
24042,1.2200,-0.5500,9.3200,0.0011,0.0022,0.0011,40.6875,-18.0625,-40.2500,349.9375,7.1875,3.5000
24106,1.1900,-0.5500,9.3200,-0.0011,-0.0044,0.0022,40.3750,-17.7500,-39.7500,349.9375,7.1875,3.5000
24169,1.1900,-0.5700,9.2800,-0.0022,-0.0022,-0.0011,39.5625,-18.0625,-41.0000,349.9375,7.1875,3.5000
24233,1.1900,-0.5700,9.3200,-0.0022,0.0022,-0.0011,39.5625,-18.0625,-40.6875,349.9375,7.1875,3.5000
24297,1.2100,-0.5500,9.3000,0.0011,0.0044,-0.0022,40.0000,-17.3750,-40.6875,349.9375,7.1875,3.5000
24359,1.2200,-0.5500,9.3200,0.0011,0.0011,-0.0033,40.0000,-18.8750,-39.8750,349.9375,7.1875,3.5000
24424,1.2300,-0.5600,9.2900,-0.0022,0.0000,0.0022,38.5000,-18.5000,-40.2500,349.9375,7.1875,3.5000
24488,1.2000,-0.5600,9.3200,-0.0022,-0.0033,0.0011,39.5625,-18.0625,-39.8750,349.9375,7.1875,3.5000
24551,1.2100,-0.5500,9.3100,-0.0011,0.0011,-0.0011,39.1875,-18.8750,-40.2500,349.9375,7.1875,3.5000
24616,1.2000,-0.5600,9.3000,-0.0011,-0.0033,-0.0011,39.5625,-18.0625,-40.6875,349.9375,7.1875,3.5000
24679,1.1900,-0.5500,9.2800,-0.0011,-0.0033,-0.0011,39.1875,-19.5625,-38.2500,349.9375,7.1875,3.5000
24741,1.2200,-0.5300,9.3100,-0.0011,0.0000,-0.0011,39.5625,-18.0625,-40.6875,349.9375,7.1875,3.5000
24807,1.1900,-0.5600,9.3100,0.0022,-0.0033,-0.0011,39.1875,-17.7500,-39.8750,349.9375,7.1875,3.5000
24869,1.2300,-0.5500,9.3000,-0.0033,-0.0011,-0.0022,40.0000,-17.3750,-39.5000,349.9375,7.1875,3.5000
24933,1.2200,-0.5700,9.2900,0.0000,0.0000,0.0011,38.8750,-18.5000,-40.6875,349.9375,7.1875,3.5000
24996,1.2100,-0.5400,9.2700,0.0011,-0.0011,-0.0022,40.3750,-18.5000,-39.8750,349.9375,7.1875,3.5000
25060,1.1800,-0.5500,9.3400,0.0022,0.0022,-0.0011,40.0000,-17.3750,-40.6875,349.9375,7.1875,3.5000
25123,1.1800,-0.5500,9.2900,-0.0011,0.0011,-0.0011,40.0000,-18.5000,-39.8750,349.9375,7.1875,3.5000
25188,1.1900,-0.5400,9.3000,-0.0033,0.0000,0.0011,41.0625,-18.0625,-41.0000,349.9375,7.1875,3.5000
25250,1.2000,-0.5500,9.3000,0.0000,-0.0022,0.0000,40.0000,-18.5000,-41.5000,349.9375,7.1875,3.5000
25314,1.2000,-0.5600,9.3200,0.0022,-0.0022,-0.0011,40.0000,-18.8750,-40.2500,349.9375,7.1875,3.5000
25378,1.2100,-0.5400,9.3200,0.0011,0.0000,0.0022,39.5625,-18.0625,-41.7500,349.9375,7.1875,3.5000
25440,1.2000,-0.5700,9.3000,-0.0055,-0.0022,0.0000,39.1875,-18.5000,-40.2500,349.9375,7.1875,3.5000
25505,1.2100,-0.5500,9.3400,0.0011,-0.0022,0.0011,38.8750,-18.0625,-39.5000,349.9375,7.1875,3.5000
25569,1.2000,-0.5700,9.3200,0.0011,-0.0022,0.0011,41.0625,-18.0625,-41.3750,349.9375,7.1875,3.5000
25632,1.2000,-0.5500,9.3200,0.0022,0.0033,0.0000,39.1875,-18.5000,-39.5000,349.9375,7.1875,3.5000
25693,1.2000,-0.5600,9.3100,-0.0022,0.0033,0.0000,39.5625,-18.8750,-41.3750,349.9375,7.1875,3.5000
25758,1.2000,-0.5600,9.3400,0.0000,0.0000,0.0022,39.5625,-18.8750,-39.5000,349.9375,7.1875,3.5000
25820,1.1900,-0.5600,9.3400,-0.0011,0.0011,0.0011,40.0000,-18.5000,-40.2500,349.9375,7.1875,3.5000
25885,1.2100,-0.5600,9.3300,0.0000,-0.0022,0.0022,39.1875,-18.5000,-40.6875,349.9375,7.1875,3.5000
25948,1.1900,-0.5600,9.3200,-0.0033,0.0000,0.0000,39.1875,-18.0625,-40.6875,349.9375,7.1875,3.5000
26011,1.2100,-0.5600,9.3000,-0.0011,-0.0011,0.0033,40.0000,-18.5000,-40.6875,349.9375,7.1875,3.5000
26075,1.2000,-0.5500,9.3100,0.0000,0.0000,0.0011,39.5625,-19.2500,-40.6875,349.9375,7.1875,3.5000
26140,1.2200,-0.5600,9.3200,0.0000,0.0011,0.0011,39.5625,-18.0625,-40.6875,349.9375,7.1875,3.5000
26201,1.2100,-0.5600,9.3300,-0.0033,0.0033,0.0000,40.0000,-18.8750,-39.7500,349.9375,7.1875,3.5000
26267,1.2000,-0.5600,9.3100,0.0000,0.0000,0.0000,40.0000,-18.5000,-39.7500,349.9375,7.1875,3.5000
26330,1.2000,-0.5500,9.3100,-0.0011,-0.0011,-0.0011,40.3750,-18.5000,-39.8750,349.9375,7.1875,3.5000
26392,1.2000,-0.5600,9.3100,0.0022,0.0000,0.0000,39.1875,-17.3750,-41.5000,349.9375,7.1875,3.5000
26457,1.2100,-0.5400,9.3100,0.0000,0.0011,0.0011,39.1875,-18.8750,-40.6875,349.9375,7.1875,3.5000
26521,1.2200,-0.5600,9.3000,-0.0022,0.0011,0.0011,40.0000,-18.5000,-41.7500,349.9375,7.1875,3.5000
26583,1.2200,-0.5600,9.3200,-0.0033,-0.0022,-0.0011,39.1875,-18.5000,-40.6875,349.9375,7.1875,3.5000
26646,1.2000,-0.5500,9.2900,0.0022,0.0000,0.0000,39.5625,-18.0625,-40.6875,349.9375,7.1875,3.5000
26710,1.2000,-0.5400,9.2900,0.0022,-0.0011,0.0000,38.8750,-18.5000,-40.2500,349.9375,7.1875,3.5000
26773,1.1800,-0.5400,9.3000,-0.0011,0.0022,-0.0011,40.0000,-18.5000,-41.5000,349.9375,7.1875,3.5000
26836,1.2000,-0.5700,9.3000,-0.0022,0.0000,-0.0011,40.0000,-18.5000,-41.0000,349.9375,7.1875,3.5000
26900,1.1800,-0.5500,9.3200,-0.0011,-0.0011,0.0000,39.1875,-18.0625,-41.7500,349.9375,7.1875,3.5000
26962,1.1900,-0.5500,9.3100,0.0011,-0.0044,-0.0011,38.1875,-18.0625,-41.0000,349.9375,7.1875,3.5000
27027,1.2100,-0.5500,9.3300,0.0011,-0.0022,0.0000,40.0000,-18.8750,-41.5000,349.9375,7.1875,3.5000
27091,1.1900,-0.5500,9.3000,0.0000,0.0033,-0.0011,39.5625,-18.5000,-41.3750,349.9375,7.1875,3.5000
27154,1.2100,-0.5400,9.3300,0.0011,0.0011,-0.0011,38.8750,-18.5000,-40.6875,349.9375,7.1875,3.5000
27219,1.2100,-0.5500,9.3100,0.0022,-0.0022,-0.0022,38.8750,-18.0625,-40.6875,349.9375,7.1875,3.5000
27282,1.1900,-0.5400,9.2800,0.0011,0.0011,-0.0011,40.0000,-18.8750,-40.6875,349.9375,7.1875,3.5000
27344,1.1900,-0.5400,9.3000,0.0022,0.0011,0.0000,40.0000,-18.5000,-40.6875,349.9375,7.1875,3.5000
27410,1.2000,-0.5500,9.3300,-0.0011,0.0011,0.0000,38.8750,-18.5000,-40.6875,349.9375,7.1875,3.5000
27472,1.2000,-0.5500,9.3200,-0.0011,0.0011,-0.0011,39.1875,-19.2500,-41.0000,349.9375,7.1875,3.5000
27536,1.2100,-0.5600,9.3100,0.0011,-0.0011,-0.0022,39.1875,-18.5000,-40.2500,349.9375,7.1875,3.5000
27600,1.2000,-0.5500,9.3100,0.0011,0.0011,0.0000,40.0000,-18.5000,-41.0625,349.9375,7.1875,3.5000
27663,1.1900,-0.5400,9.3100,0.0033,0.0044,-0.0011,40.6875,-18.5000,-39.0625,349.9375,7.1875,3.5000
27726,1.2200,-0.5600,9.2800,0.0033,-0.0044,0.0022,40.0000,-17.7500,-40.6875,349.9375,7.1875,3.5000
27792,1.1900,-0.5700,9.3100,-0.0011,-0.0011,0.0011,39.5625,-18.0625,-40.6875,349.9375,7.1875,3.5000
27853,1.2100,-0.5500,9.3300,-0.0011,0.0000,-0.0011,40.3750,-18.5000,-40.2500,349.9375,7.1875,3.5000
27917,1.2100,-0.5600,9.3200,0.0098,0.0033,0.0011,40.0000,-18.5000,-40.6875,349.9375,7.1875,3.5000
27982,1.2000,-0.5600,9.2900,-0.0011,-0.0011,0.0022,39.5625,-17.7500,-40.2500,349.9375,7.1875,3.5000
28043,1.2000,-0.5600,9.3000,-0.0033,-0.0022,0.0000,40.3750,-18.8750,-41.3750,349.9375,7.1875,3.5000
28108,1.2300,-0.5600,9.3100,-0.0011,0.0022,-0.0044,40.3750,-18.0625,-40.2500,349.9375,7.1875,3.5000
28172,1.2000,-0.5400,9.2900,0.0022,0.0011,-0.0022,38.8750,-18.8750,-40.2500,349.9375,7.1875,3.5000
28235,1.2000,-0.5700,9.3000,0.0022,0.0011,-0.0011,39.1875,-18.5000,-39.8750,349.9375,7.1875,3.5000
28296,1.2100,-0.5700,9.3400,-0.0044,0.0033,0.0000,38.5000,-18.0625,-41.0000,349.9375,7.1875,3.5000
28362,1.1900,-0.5500,9.3100,-0.0011,0.0000,0.0011,39.1875,-18.8750,-39.5000,349.9375,7.1875,3.5000
28424,1.2300,-0.5600,9.3000,0.0000,0.0022,-0.0011,40.0000,-18.5000,-40.2500,349.9375,7.1875,3.5000
28488,1.1900,-0.5600,9.3200,0.0000,-0.0033,0.0011,39.1875,-18.5000,-39.8750,349.9375,7.1875,3.5000
28551,1.2100,-0.5600,9.3200,-0.0033,-0.0011,-0.0011,40.3750,-18.5000,-41.3750,349.9375,7.1875,3.5000
28614,1.2100,-0.5500,9.3300,0.0000,-0.0022,-0.0011,39.5625,-18.5000,-39.7500,349.9375,7.1875,3.5000
28678,1.1800,-0.5400,9.3100,0.0011,0.0011,-0.0022,38.5000,-18.0625,-40.6875,349.9375,7.1875,3.5000
28743,1.2000,-0.5500,9.3100,-0.0011,-0.0033,0.0011,38.8750,-18.0625,-40.6875,349.9375,7.1875,3.5000
28805,1.2100,-0.5500,9.3200,0.0011,0.0022,-0.0022,39.5625,-18.0625,-41.7500,349.9375,7.1875,3.5000
28870,1.2300,-0.5500,9.3300,0.0011,0.0000,0.0000,38.8750,-18.5000,-39.8750,349.9375,7.1875,3.5000
28933,1.2100,-0.5400,9.2900,-0.0011,0.0011,0.0011,39.5625,-18.0625,-40.2500,349.9375,7.1875,3.5000
28996,1.2100,-0.5400,9.3100,-0.0011,-0.0011,-0.0011,40.6875,-18.0625,-42.1875,349.9375,7.1875,3.5000
29060,1.2200,-0.5500,9.3200,0.0000,0.0000,-0.0022,38.5000,-18.8750,-40.2500,349.9375,7.1875,3.5000
29124,1.2000,-0.5700,9.3100,0.0011,-0.0044,0.0000,40.3750,-18.0625,-39.7500,349.9375,7.1875,3.5000
29187,1.2100,-0.5500,9.3300,0.0000,-0.0033,-0.0011,39.5625,-18.5000,-40.6875,349.9375,7.1875,3.5000
29251,1.2200,-0.5400,9.3100,-0.0033,-0.0033,0.0011,40.0000,-18.5000,-40.6875,349.9375,7.1875,3.5000
29314,1.2000,-0.5500,9.3000,-0.0011,-0.0033,0.0022,40.0000,-18.5000,-40.6875,349.9375,7.1875,3.5000
29377,1.2200,-0.5600,9.3000,-0.0011,0.0022,0.0000,40.0000,-18.0625,-41.0000,349.9375,7.1875,3.5000
29442,1.2200,-0.5500,9.2900,0.0000,-0.0033,-0.0011,39.1875,-18.0625,-41.3750,349.9375,7.1875,3.5000
29505,1.2100,-0.5800,9.3000,-0.0022,-0.0011,0.0000,39.5625,-18.5000,-41.0000,349.9375,7.1875,3.5000
29569,1.2100,-0.5500,9.3000,0.0000,0.0033,-0.0011,39.1875,-19.2500,-41.0000,349.9375,7.1875,3.5000
29634,1.1900,-0.5500,9.3100,-0.0011,0.0022,0.0011,39.1875,-18.5000,-39.5000,349.9375,7.1875,3.5000
29695,1.2000,-0.5500,9.3000,0.0022,0.0000,0.0011,38.5000,-18.8750,-41.3750,349.9375,7.1875,3.5000
29760,1.2000,-0.5500,9.3100,0.0000,0.0011,0.0011,40.0000,-18.0625,-39.7500,349.9375,7.1875,3.5000
29824,1.2200,-0.5600,9.3200,-0.0033,-0.0011,0.0000,39.1875,-18.5000,-39.5000,349.9375,7.1875,3.5000
29887,1.2100,-0.5400,9.3100,-0.0011,-0.0033,-0.0011,39.1875,-18.0625,-40.2500,349.9375,7.1875,3.5000
29948,1.1900,-0.5600,9.3100,0.0033,-0.0022,0.0000,40.0000,-18.0625,-40.6875,349.9375,7.1875,3.5000
30014,1.2100,-0.5600,9.3200,-0.0011,-0.0011,-0.0022,39.1875,-18.8750,-39.5000,349.9375,7.1875,3.5000
30076,1.2200,-0.5500,9.2700,-0.0044,0.0011,-0.0011,38.8750,-18.8750,-41.0000,349.9375,7.1875,3.5000
30140,1.1800,-0.5600,9.3100,0.0022,0.0044,0.0000,39.5625,-18.5000,-40.2500,349.9375,7.1875,3.5000
30204,1.1900,-0.5500,9.3100,0.0033,0.0011,-0.0011,40.0000,-18.8750,-40.2500,349.9375,7.1875,3.5000
30266,1.2100,-0.5600,9.3000,-0.0033,0.0011,0.0011,39.5625,-17.0625,-39.8750,349.9375,7.1875,3.5000
30330,1.2100,-0.5400,9.2700,-0.0022,0.0022,0.0000,39.5625,-18.8750,-40.6875,349.9375,7.1875,3.5000
30395,1.2000,-0.5500,9.3200,-0.0011,0.0055,0.0000,39.1875,-17.7500,-40.2500,349.9375,7.1875,3.5000
30457,1.1900,-0.5500,9.3000,0.0044,-0.0011,0.0000,39.5625,-18.8750,-40.2500,349.9375,7.1875,3.5000
30523,1.2100,-0.5700,9.2900,-0.0044,0.0000,-0.0022,40.0000,-18.5000,-41.0000,349.9375,7.1875,3.5000
30586,1.2200,-0.5300,9.3100,-0.0076,-0.0022,-0.0011,38.8750,-18.8750,-41.0000,349.9375,7.1875,3.5000
30647,1.1800,-0.5700,9.3500,0.0011,-0.0011,0.0011,39.1875,-18.8750,-41.3750,349.9375,7.1875,3.5000
30713,1.2100,-0.5700,9.3000,0.0011,-0.0011,0.0000,40.0000,-18.0625,-40.6875,349.9375,7.1875,3.5000
30775,1.2000,-0.5500,9.3300,-0.0022,0.0000,0.0000,40.0000,-18.8750,-41.0000,349.9375,7.1875,3.5000
30839,1.1800,-0.5600,9.3000,0.0000,0.0022,0.0000,38.8750,-18.8750,-41.0000,349.9375,7.1875,3.5000
30902,1.1900,-0.5600,9.3000,0.0011,-0.0011,0.0000,40.0000,-18.5000,-41.7500,349.9375,7.1875,3.5000
30966,1.1900,-0.5700,9.3200,-0.0022,0.0000,0.0000,39.1875,-18.0625,-39.8750,349.9375,7.1875,3.5000
31029,1.2000,-0.5600,9.2900,-0.0044,0.0011,-0.0011,40.0000,-17.7500,-40.2500,349.9375,7.1875,3.5000
31094,1.2100,-0.5800,9.3400,-0.0087,-0.0033,0.0011,39.5625,-18.8750,-40.6875,349.9375,7.1875,3.5000
31156,1.1900,-0.5400,9.3300,0.0000,-0.0044,0.0011,40.0000,-17.7500,-41.7500,349.9375,7.1875,3.5000
31221,1.2000,-0.5600,9.3300,0.0065,0.0011,0.0022,39.1875,-17.7500,-40.2500,349.9375,7.1875,3.5000
31285,1.2000,-0.5500,9.3000,0.0011,0.0011,-0.0011,39.1875,-18.0625,-39.8750,349.9375,7.1875,3.5000
31348,1.1900,-0.5400,9.3200,0.0011,0.0011,0.0000,40.3750,-18.0625,-39.8750,349.9375,7.1875,3.5000
31412,1.2200,-0.5800,9.3100,-0.0022,0.0011,-0.0011,39.5625,-18.5000,-39.0625,349.9375,7.1875,3.5000
31476,1.2100,-0.5400,9.3100,0.0011,0.0022,0.0000,40.0000,-18.0625,-41.0000,349.9375,7.1875,3.5000
31538,1.2000,-0.5800,9.3200,0.0087,-0.0011,-0.0011,38.8750,-18.5000,-40.6875,349.9375,7.1875,3.5000
31601,1.2100,-0.5600,9.3100,0.0033,-0.0022,0.0011,39.1875,-17.7500,-41.0000,349.9375,7.1875,3.5000
31665,1.2100,-0.5600,9.2800,-0.0011,0.0022,0.0011,38.1875,-17.7500,-41.0625,349.9375,7.1875,3.5000
31728,1.2100,-0.5500,9.3000,-0.0033,-0.0033,0.0022,39.1875,-18.5000,-40.2500,349.9375,7.1875,3.5000
31792,1.2100,-0.5500,9.3000,0.0022,-0.0022,0.0022,40.0000,-18.5000,-41.5000,349.9375,7.1875,3.5000
31856,1.1900,-0.5600,9.3300,0.0011,-0.0022,0.0022,39.1875,-18.0625,-40.6875,349.9375,7.1875,3.5000
31918,1.2000,-0.5600,9.3100,-0.0011,0.0022,0.0011,39.1875,-18.0625,-39.5000,349.9375,7.1875,3.5000
31982,1.2000,-0.5600,9.2900,-0.0011,0.0011,0.0011,39.1875,-18.0625,-41.7500,349.9375,7.1875,3.5000
32046,1.1900,-0.5700,9.3100,0.0033,0.0000,0.0033,39.1875,-18.0625,-39.8750,349.9375,7.1875,3.5000
32109,1.1900,-0.5200,9.3000,0.0033,0.0000,0.0000,40.3750,-17.3750,-40.2500,349.9375,7.1875,3.5000
32173,1.2000,-0.5400,9.3200,-0.0011,0.0033,-0.0022,40.0000,-18.0625,-42.1875,349.9375,7.1875,3.5000
32237,1.1800,-0.5600,9.3000,-0.0033,-0.0044,-0.0011,38.8750,-18.0625,-39.0625,349.9375,7.1875,3.5000
32299,1.1900,-0.5500,9.3100,-0.0033,-0.0022,0.0000,38.8750,-17.7500,-40.6875,349.9375,7.1875,3.5000
32365,1.1700,-0.5500,9.3100,0.0011,-0.0033,-0.0011,39.5625,-18.0625,-41.7500,349.9375,7.1875,3.5000
32428,1.2100,-0.5600,9.3000,0.0044,0.0022,0.0000,40.3750,-18.0625,-41.0625,349.9375,7.1875,3.5000
32491,1.2000,-0.5500,9.2900,-0.0022,-0.0022,0.0000,39.1875,-17.3750,-40.2500,349.9375,7.1875,3.5000
32553,1.2200,-0.5600,9.3200,-0.0044,-0.0033,-0.0022,39.1875,-18.5000,-40.2500,349.9375,7.1875,3.5000
32618,1.1800,-0.5600,9.3000,0.0000,0.0000,-0.0022,38.8750,-18.0625,-38.6875,349.9375,7.1875,3.5000
32679,1.2100,-0.5600,9.2900,0.0055,0.0000,-0.0011,39.5625,-18.5000,-41.0000,349.9375,7.1875,3.5000
32744,1.1900,-0.5500,9.3200,0.0044,0.0000,0.0011,38.8750,-18.0625,-40.2500,349.9375,7.1875,3.5000
32808,1.2100,-0.5500,9.3100,-0.0033,-0.0022,-0.0022,40.0000,-17.3750,-40.2500,349.9375,7.1875,3.5000
32871,1.2000,-0.5600,9.3300,-0.0044,0.0033,-0.0011,40.3750,-18.0625,-39.8750,349.9375,7.1875,3.5000
32936,1.1900,-0.5700,9.2900,0.0000,-0.0022,0.0011,39.1875,-18.0625,-41.0000,349.9375,7.1875,3.5000
32999,1.2000,-0.5600,9.3100,0.0000,0.0000,-0.0022,40.0000,-17.7500,-41.7500,349.9375,7.1875,3.5000
33062,1.2100,-0.5400,9.3300,0.0000,0.0033,-0.0044,38.8750,-18.5000,-41.5000,349.9375,7.1875,3.5000
33128,1.2100,-0.5500,9.3200,-0.0044,-0.0011,0.0000,39.1875,-17.7500,-40.6875,349.9375,7.1875,3.5000
33189,1.2100,-0.5500,9.3100,-0.0251,-0.0022,-0.0076,39.5625,-18.0625,-40.2500,349.9375,7.1875,3.5625
33252,1.2000,-0.6000,9.3200,-0.0131,0.0011,-0.0044,39.1875,-18.0625,-39.8750,349.9375,7.1875,3.6250
33317,1.2100,-0.5600,9.3100,0.0076,0.0011,0.0011,40.6875,-17.0625,-40.6875,349.9375,7.1875,3.6250
33380,1.2100,-0.6000,9.3100,0.0011,-0.0022,0.0011,39.1875,-17.7500,-40.6875,349.9375,7.1875,3.6250
33444,1.2100,-0.5600,9.2900,-0.0033,-0.0011,0.0011,39.5625,-18.8750,-38.6875,349.9375,7.1875,3.6250
33508,1.2000,-0.5700,9.3100,-0.0022,-0.0022,0.0033,39.1875,-17.7500,-41.5000,349.9375,7.1875,3.6250
33570,1.1700,-0.5600,9.3200,0.0000,0.0011,0.0000,39.5625,-17.3750,-40.6875,349.9375,7.1875,3.6250
33634,1.2100,-0.6600,9.3100,-0.0164,-0.0011,-0.0022,40.3750,-18.0625,-40.6875,349.9375,7.1875,3.6875
33699,1.1900,-0.5800,9.3100,-0.0011,-0.0033,0.0033,39.5625,-18.5000,-39.0625,349.9375,7.1875,3.6875
33761,1.2100,-0.5800,9.2900,0.0044,0.0000,0.0011,40.0000,-18.5000,-40.6875,349.9375,7.1875,3.6875
33827,1.2000,-0.5500,9.3100,-0.0011,0.0022,-0.0022,39.1875,-18.5000,-39.7500,349.9375,7.1875,3.6875
33889,1.1900,-0.6100,9.2700,-0.0207,0.0011,-0.0022,39.1875,-18.0625,-41.0625,350.0000,7.1875,3.7500
33952,1.2000,-0.5800,9.3200,-0.0022,0.0000,0.0000,39.5625,-17.3750,-39.0625,350.0000,7.1875,3.7500
34016,1.2100,-0.6100,9.2900,0.0011,0.0022,-0.0011,39.5625,-17.7500,-39.8750,350.0000,7.1875,3.7500
34080,1.1900,-0.6000,9.3300,0.0022,0.0000,0.0000,39.1875,-18.0625,-40.6875,350.0000,7.1875,3.7500
34143,1.2000,-0.6100,9.3000,-0.0022,-0.0011,0.0022,39.5625,-18.0625,-39.7500,350.0000,7.1875,3.7500
34207,1.2000,-0.5800,9.3300,0.0000,0.0011,-0.0011,38.1875,-17.3750,-39.7500,350.0000,7.1875,3.7500
34270,1.1900,-0.6000,9.3200,0.0022,-0.0011,-0.0011,38.8750,-18.5000,-39.8750,350.0000,7.1875,3.7500
34334,1.2100,-0.6000,9.2900,-0.0011,0.0022,0.0011,38.8750,-17.0625,-40.6875,350.0000,7.1875,3.7500
34398,1.2000,-0.6000,9.2900,-0.0011,0.0011,0.0000,39.5625,-17.3750,-40.6875,350.0000,7.1875,3.7500
34461,1.2200,-0.6000,9.2900,-0.0011,0.0011,-0.0011,39.5625,-17.7500,-40.2500,350.0000,7.1875,3.7500
34525,1.1900,-0.6000,9.2900,0.0011,0.0011,0.0011,39.5625,-17.7500,-41.3750,350.0000,7.1875,3.7500
34590,1.2300,-0.6200,9.2900,0.0000,-0.0022,0.0000,40.6875,-17.7500,-39.5000,350.0000,7.1875,3.7500
34651,1.2000,-0.6000,9.2900,0.0011,0.0011,-0.0011,40.3750,-17.7500,-39.8750,350.0000,7.1875,3.7500
34716,1.1900,-0.6000,9.2900,-0.0022,0.0022,0.0000,39.1875,-18.5000,-39.8750,350.0000,7.1875,3.7500
34780,1.2100,-0.6200,9.2900,0.0033,0.0000,-0.0011,38.5000,-17.7500,-40.6875,350.0000,7.1875,3.7500
34843,1.2000,-0.6000,9.3000,-0.0033,0.0033,-0.0011,39.1875,-18.0625,-40.6875,350.0000,7.1875,3.7500
34905,1.2100,-0.6000,9.3100,0.0011,0.0033,0.0011,39.5625,-18.0625,-41.0625,350.0000,7.1875,3.7500
34970,1.1900,-0.5900,9.3000,0.0000,0.0033,0.0000,39.5625,-18.5000,-39.8750,350.0000,7.1875,3.7500
35032,1.2100,-0.6100,9.3100,-0.0044,0.0022,-0.0033,40.0000,-18.0625,-39.8750,350.0000,7.1875,3.7500
35096,1.2100,-0.6000,9.3000,-0.0011,-0.0022,-0.0022,39.5625,-18.5000,-39.7500,350.0000,7.1875,3.7500
35159,1.2100,-0.5800,9.3000,0.0076,0.0022,0.0011,40.0000,-18.0625,-40.6875,350.0000,7.1875,3.7500
35222,1.2200,-0.6000,9.3000,0.0000,-0.0033,0.0000,39.5625,-18.0625,-41.0000,350.0000,7.1875,3.7500
35285,1.2100,-0.5900,9.2900,0.0000,0.0000,-0.0033,38.8750,-17.7500,-40.6875,350.0000,7.1875,3.7500
35350,1.2000,-0.5800,9.2900,0.0011,0.0022,-0.0022,40.0000,-18.0625,-41.5000,350.0000,7.1875,3.7500
35412,1.2000,-0.5800,9.2900,0.0295,0.0000,0.0044,41.0625,-18.0625,-39.5000,349.9375,7.1875,3.6875
35477,1.2100,-0.6400,9.2900,-0.0349,-0.0022,-0.0044,39.8750,-17.3750,-39.5000,349.9375,7.1875,3.6875
35540,1.1900,-0.5500,9.3000,0.0087,-0.0022,0.0000,39.8750,-18.0625,-39.5000,349.9375,7.1875,3.6875
35603,1.2000,-0.5700,9.3200,0.0131,0.0044,0.0000,39.5000,-17.7500,-40.0000,349.9375,7.1875,3.6875
35667,1.2000,-0.6100,9.3100,0.0076,-0.0011,-0.0022,39.8750,-18.5000,-41.5625,349.9375,7.1875,3.6875
35731,1.1800,-0.6000,9.2800,-0.0142,-0.0044,0.0011,39.5000,-18.5000,-40.3750,349.9375,7.1875,3.6875
35793,1.2100,-0.5900,9.3000,-0.0087,0.0011,0.0000,39.5000,-18.0625,-40.3750,349.9375,7.1875,3.6875
35856,1.2100,-0.6000,9.3000,0.0087,0.0033,0.0000,39.5000,-18.5000,-40.0000,349.9375,7.1875,3.6875
35920,1.2000,-0.5900,9.3300,0.0055,-0.0011,0.0011,39.0625,-17.3750,-40.0000,349.9375,7.1875,3.6875
35983,1.2200,-0.6100,9.3000,0.0011,0.0011,0.0000,40.5625,-18.5000,-41.0625,349.9375,7.1875,3.6875
36047,1.1900,-0.5800,9.2900,-0.0120,-0.0011,0.0000,40.2500,-18.0625,-41.5625,349.9375,7.1875,3.6875
36111,1.2200,-0.6200,9.3300,0.0033,-0.0011,0.0022,40.5625,-17.3750,-41.0625,349.9375,7.1875,3.6875
36173,1.2000,-0.2300,9.2400,0.2367,0.0218,0.0436,39.8750,-18.5000,-40.0000,349.8125,7.1875,3.2500
36236,1.2300,-0.8500,9.2800,-0.1233,-0.0044,-0.0185,38.7500,-18.0625,-38.7500,349.8750,7.1875,3.5000
36301,1.1900,-0.3900,9.2900,-0.0513,-0.0360,-0.0055,39.1875,-18.5000,-39.8750,349.8750,7.1875,3.3750
36363,1.1600,-0.4500,9.4100,0.0262,0.0142,0.0120,40.6875,-18.5000,-38.7500,349.8750,7.1875,3.2500
36427,1.2200,-0.4900,9.3200,0.0764,0.0142,-0.0022,39.5625,-19.2500,-40.0000,349.8750,7.1875,3.3750
36491,1.3600,-1.4700,8.4500,0.2051,0.0796,-0.0022,39.5625,-18.8750,-40.3750,349.8125,7.0000,2.7500
36554,1.0900,0.0000,9.3600,0.3829,0.0894,0.0098,39.5625,-18.5000,-40.0000,349.5625,6.4375,0.5625
36616,1.2700,-0.1000,9.3900,0.4342,0.1167,0.0065,40.2500,-21.3750,-41.1875,349.5000,6.1250,-0.5625
36681,0.9200,0.1000,9.1300,0.1669,0.0022,-0.0065,40.2500,-22.0000,-39.5625,349.3125,5.8125,-2.0000
36743,0.8400,0.0000,9.0900,0.0785,0.1494,0.0240,40.5625,-23.3750,-41.5000,349.1250,5.5625,-2.3750
36806,1.3200,0.9600,8.9900,0.0382,0.0055,0.0447,41.0000,-23.0625,-41.8750,349.1250,5.4375,-2.5000
36868,0.6500,1.0300,9.2600,-0.0764,-0.0098,0.0731,42.0625,-23.7500,-40.7500,349.1250,5.5625,-2.1250
36932,0.8500,0.7000,9.5900,-0.1625,-0.0425,-0.0196,41.2500,-22.2500,-42.0000,349.1875,5.8750,-1.8125
36994,1.1000,0.8600,9.3100,-0.0720,0.3349,0.0349,41.1875,-23.3750,-41.6875,349.1250,5.1875,-1.8750
37057,0.5400,-0.7400,9.5600,-0.1200,-0.0218,-0.1124,42.2500,-23.3750,-41.1875,349.3125,4.5625,-1.8125
37122,0.7500,0.3900,9.4200,-0.0175,0.0055,0.0164,41.1875,-22.8750,-41.2500,349.3125,4.5625,-1.6875
37185,0.7100,0.3500,9.3900,-0.0665,-0.0513,-0.0284,42.0000,-24.6875,-42.3750,349.3125,4.5625,-1.6250
37248,0.9200,0.4600,9.4000,-0.2313,-0.2367,-0.1156,41.5625,-24.0000,-42.3750,349.6250,5.0000,-1.3750
37310,0.8700,0.0900,9.2800,-0.1636,0.0262,0.0371,42.0000,-24.3750,-41.2500,349.7500,5.4375,-0.8125
37372,1.1300,0.6700,9.3200,-0.0785,0.2825,0.0949,40.1875,-22.8750,-41.5625,349.5000,4.8750,-0.7500
37435,0.8500,-0.0100,9.2100,0.0971,0.0120,0.0316,41.1875,-22.1875,-40.5000,349.4375,4.7500,-0.9375
37498,0.7800,0.1200,9.3700,-0.1374,-0.0327,-0.0436,41.5625,-22.5000,-42.0000,349.5000,4.6875,-1.0625
37561,0.6700,0.4800,9.6500,0.1647,0.0284,0.0164,40.8750,-23.2500,-40.8750,349.5000,4.6875,-1.1875
37623,0.8200,0.3200,9.2700,-0.0982,-0.1331,-0.0633,41.5625,-23.2500,-41.6875,349.8125,5.1250,-0.6250
37685,0.8400,0.1100,9.3000,0.0055,-0.1189,-0.0153,41.1875,-21.0625,-41.5625,349.8750,5.5000,-0.4375
37750,0.9500,0.1800,9.4900,0.0545,0.0371,0.0327,39.3750,-23.2500,-41.5625,349.8125,5.5000,-0.4375
37812,0.8100,0.1600,9.5600,0.2116,0.2793,0.1353,39.0000,-22.5000,-40.8750,349.5625,4.8750,-0.8750
37874,0.6500,0.2000,9.3900,0.1091,0.0665,0.0185,40.8750,-23.5000,-41.6875,349.3750,4.4375,-1.4375
37936,0.7400,0.2500,9.3800,0.0360,0.0262,-0.0295,41.5625,-23.1875,-40.8750,349.5625,4.3125,-1.6250
38001,0.6800,0.3500,9.3400,0.0131,0.0000,-0.0131,42.0000,-24.2500,-41.1875,349.5625,4.1875,-1.7500
38063,0.6800,0.3500,9.4000,-0.0251,-0.1353,-0.0556,41.1875,-24.2500,-41.1875,349.7500,4.5625,-1.6250
38126,0.7600,0.2800,9.3800,0.0087,-0.0327,-0.0185,41.5625,-23.1875,-41.2500,349.8750,4.7500,-1.5625
38188,0.7600,0.2900,9.3700,0.0142,0.0393,0.0000,41.5625,-23.5000,-41.6875,349.9375,4.6875,-1.6250
38254,0.7400,0.2900,9.3800,0.0087,0.0185,-0.0011,41.1875,-23.1875,-41.2500,349.9375,4.6250,-1.6875
38316,0.7700,0.2900,9.4300,-0.0469,-0.0436,-0.0033,41.5625,-23.1875,-41.6875,349.9375,4.7500,-1.5625
38378,1.0200,0.2800,9.4000,-0.1920,-0.1058,-0.0316,41.1875,-23.1875,-41.2500,350.0000,5.0000,-1.1875
38443,0.9400,0.1100,9.3000,-0.2585,-0.0774,-0.0458,41.5625,-23.1875,-41.6875,350.1875,5.4375,-0.5000
38506,1.0400,-0.1100,9.2700,-0.1331,-0.0807,-0.0327,40.1875,-21.2500,-40.5000,350.3125,5.6875,0.1875
38568,0.9400,-0.0400,9.3800,-0.0840,-0.0229,-0.0022,39.7500,-21.1875,-40.5000,350.3125,5.7500,0.5000
38634,0.9600,-0.1700,9.3400,-0.1789,-0.0218,-0.0240,40.8750,-21.5625,-40.8750,350.3750,5.8125,0.9375
38696,1.0300,-0.3000,9.2900,-0.1429,-0.0524,0.0000,41.1875,-19.7500,-40.8750,350.5000,6.0625,1.6250
38758,1.0400,-0.3900,9.3400,-0.0229,-0.0011,0.0033,40.1875,-20.3750,-41.6875,350.5000,6.1250,1.8125
38820,1.0100,-0.3100,9.3600,-0.0927,-0.0196,-0.0022,40.1875,-19.2500,-41.6875,350.5000,6.1250,1.7500
38885,0.9900,-0.2200,9.4300,0.0022,0.0033,-0.0033,40.5000,-20.3750,-40.8750,350.5000,6.1250,1.7500
38947,1.0000,-0.2200,9.4100,0.0622,0.0087,0.0033,40.1875,-20.2500,-41.1875,350.5000,6.1250,1.7500
39008,1.0200,-0.3900,9.3300,0.0251,0.0207,0.0284,39.7500,-19.5625,-42.0000,350.5000,6.1250,1.8125
39071,1.0100,-0.2600,9.2900,-0.0305,-0.0196,-0.0273,38.6875,-19.5625,-40.5000,350.4375,6.1250,1.8125
39135,1.0200,-0.3300,9.3800,-0.0349,-0.0153,0.0000,40.1875,-19.8750,-41.2500,350.5000,6.1250,1.8125
39197,0.9900,-0.1600,9.3700,-0.0044,0.0000,-0.0033,39.3750,-19.8750,-41.1875,350.5000,6.1250,1.7500
39259,0.9800,-0.2800,9.4000,0.0556,-0.0055,-0.0295,40.1875,-19.8750,-42.0000,350.5625,6.1250,1.8125
39322,1.0600,-0.3600,9.3600,0.0055,-0.0240,-0.0338,39.3750,-19.5625,-40.8750,350.6250,6.1875,1.8125
39385,1.0200,-0.3500,9.3500,-0.0295,-0.0120,0.0033,40.1875,-19.8750,-41.2500,350.6875,6.2500,1.8125
39448,1.0400,-0.2800,9.3400,-0.0327,0.0011,-0.0033,39.3750,-20.6875,-42.5000,350.6875,6.1875,1.7500
39510,1.0100,-0.2600,9.3900,0.0196,0.0022,-0.0033,38.6875,-19.8750,-41.2500,350.6875,6.1875,1.7500
39575,1.0200,-0.3000,9.3400,0.0175,0.0022,0.0033,39.3750,-19.8750,-41.2500,350.6875,6.1875,1.7500
39637,1.0300,-0.2900,9.3500,0.0065,0.0022,0.0000,39.0000,-19.5625,-41.2500,350.6875,6.1875,1.8125
39701,1.0200,-0.3100,9.3600,-0.0240,-0.0044,-0.0022,39.7500,-19.8750,-40.5000,350.6875,6.1875,1.8125
39764,1.0100,-0.2400,9.3700,-0.0044,0.0011,0.0011,39.3750,-19.8750,-42.3750,350.6875,6.1875,1.8125
39828,1.0400,-0.2700,9.3600,0.0131,0.0033,0.0022,40.8750,-19.1875,-40.8750,350.6875,6.1875,1.8125
39891,1.0200,-0.2700,9.3200,0.0098,0.0022,0.0000,39.3750,-20.6875,-40.8750,350.6875,6.1875,1.8125
39956,1.0300,-0.3000,9.3600,-0.0044,-0.0011,-0.0022,39.3750,-19.5625,-42.0000,350.6875,6.1875,1.8125
40018,1.0300,-0.3000,9.3600,-0.0120,-0.0022,-0.0011,39.0000,-18.7500,-41.6875,350.6875,6.1875,1.8125
40083,1.0400,-0.2600,9.3700,0.0000,-0.0011,-0.0022,39.7500,-19.5625,-41.2500,350.6875,6.1875,1.8125
40146,1.0500,-0.2600,9.3300,0.0011,0.0044,0.0000,39.3750,-19.8750,-42.0000,350.6875,6.1875,1.8125
40209,1.0300,-0.2800,9.3800,0.0109,0.0033,0.0000,39.0000,-19.8750,-41.2500,350.6875,6.1875,1.8125
40273,1.0300,-0.2600,9.3700,-0.0055,0.0033,0.0000,39.3750,-18.7500,-41.6875,350.6875,6.1875,1.8125
40337,1.0300,-0.3000,9.3500,-0.0033,-0.0011,0.0011,39.7500,-19.5625,-42.0000,350.6875,6.1875,1.8125
40399,1.0400,-0.2900,9.3800,-0.0109,-0.0022,0.0087,38.6875,-19.8750,-40.8750,350.6875,6.1875,1.8125
40461,1.0300,-0.3000,9.3600,0.0044,0.0055,0.0109,39.7500,-19.5625,-40.8750,350.6875,6.1875,1.8125
40523,1.0400,-0.3000,9.3700,-0.0011,0.0087,0.0240,39.3750,-19.8750,-41.6875,350.6250,6.1875,1.8750
40587,1.0100,-0.2700,9.3500,-0.0065,0.0000,-0.0011,39.0000,-19.5625,-40.5000,350.5625,6.1875,1.8750
40650,1.0100,-0.2600,9.3400,0.0000,-0.0044,-0.0022,40.1875,-19.8750,-40.8750,350.5625,6.1875,1.8750
40711,1.0000,-0.2800,9.3400,-0.0044,-0.0098,-0.0196,39.7500,-19.8750,-42.0000,350.6250,6.1875,1.8750
40777,1.0400,-0.3200,9.3800,0.0055,-0.0011,-0.0055,39.3750,-21.0000,-40.8750,350.6875,6.2500,1.8125
40838,1.0100,-0.2400,9.3000,0.0000,0.0055,0.0000,39.3750,-19.5625,-42.0000,350.6875,6.2500,1.8125
40903,1.0100,-0.3300,9.3700,-0.0033,0.0055,-0.0022,39.3750,-20.2500,-41.1875,350.6875,6.2500,1.8750
40966,1.0400,-0.2700,9.3300,-0.0065,-0.0044,-0.0022,38.6875,-20.6875,-42.0000,350.6875,6.2500,1.8750
41029,1.0100,-0.2700,9.3400,-0.0022,-0.0055,0.0022,38.6875,-19.5625,-40.5000,350.6875,6.2500,1.8750
41092,1.0300,-0.2400,9.3300,0.0098,0.0011,0.0044,39.7500,-20.2500,-41.2500,350.6875,6.2500,1.8750
41157,1.0200,-0.2600,9.3500,-0.0022,0.0098,0.0098,39.0000,-20.2500,-41.6875,350.6875,6.2500,1.8750
41219,1.0200,-0.3000,9.3700,-0.0022,0.0011,-0.0022,39.7500,-19.8750,-41.2500,350.6875,6.2500,1.8750
41284,1.0300,-0.3400,9.3900,-0.0044,0.0022,-0.0011,39.3750,-20.6875,-42.0000,350.6875,6.2500,1.8750
41348,1.0300,-0.2500,9.3600,-0.0033,0.0033,0.0000,39.0000,-19.8750,-41.6875,350.6875,6.2500,1.8750
41410,1.0000,-0.3000,9.3600,0.0055,-0.0022,0.0000,38.6875,-20.6875,-42.3750,350.6875,6.2500,1.8750
41474,1.0300,-0.2800,9.3600,0.0033,0.0000,0.0000,38.6875,-19.8750,-41.2500,350.6875,6.2500,1.8750
41538,1.0500,-0.3000,9.3400,-0.0055,0.0000,-0.0011,39.3750,-19.8750,-40.8750,350.6875,6.2500,1.8750
41600,1.0100,-0.3000,9.3300,-0.0033,-0.0033,-0.0011,38.2500,-19.1875,-42.7500,350.6875,6.2500,1.8750
41663,1.0200,-0.2900,9.3900,0.0000,0.0011,0.0000,39.3750,-19.5625,-42.3750,350.6875,6.2500,1.8750
41727,1.0200,-0.2800,9.3600,0.0011,0.0033,0.0000,38.6875,-21.0000,-40.5000,350.6875,6.2500,1.8750
41790,1.0100,-0.2800,9.3500,0.0000,0.0011,-0.0011,39.0000,-20.2500,-41.6875,350.6875,6.2500,1.8750
41854,1.0100,-0.2900,9.3700,0.0000,-0.0011,0.0000,39.3750,-20.2500,-41.6875,350.6875,6.2500,1.8750
41918,1.0200,-0.3000,9.3500,-0.0033,0.0022,0.0000,39.0000,-19.8750,-41.2500,350.6875,6.2500,1.8750
41980,1.0100,-0.2800,9.3800,0.0011,0.0000,-0.0011,39.3750,-20.6875,-40.8750,350.6875,6.2500,1.8750
42044,1.0100,-0.2600,9.3500,0.0011,0.0000,0.0000,39.7500,-19.8750,-40.5000,350.6875,6.2500,1.8750
42108,1.0300,-0.2800,9.3500,-0.0044,0.0033,-0.0022,38.2500,-19.1875,-42.3750,350.6875,6.2500,1.8750
42171,1.0200,-0.2900,9.3400,0.0011,0.0011,-0.0011,39.0000,-19.1875,-41.2500,350.6875,6.2500,1.8750
42235,1.0100,-0.2900,9.3700,0.0033,-0.0011,-0.0011,39.7500,-19.1875,-41.6875,350.6875,6.2500,1.8750
42299,1.0200,-0.2700,9.3600,0.0033,0.0011,0.0000,40.1875,-19.8750,-42.3750,350.6875,6.2500,1.8750
42361,1.0200,-0.3000,9.3600,0.0011,-0.0022,-0.0011,40.1875,-19.8750,-41.6875,350.6875,6.2500,1.8750
42426,1.0100,-0.2700,9.3800,-0.0022,-0.0011,0.0000,40.1875,-19.5625,-41.5625,350.6875,6.2500,1.8750
42489,1.0300,-0.2800,9.3500,0.0022,-0.0011,0.0000,39.0000,-19.8750,-42.3750,350.6875,6.2500,1.8750
42551,1.0100,-0.2900,9.3700,0.0022,0.0022,-0.0022,39.3750,-19.8750,-42.0000,350.6875,6.2500,1.8750
42613,1.0000,-0.2700,9.3400,0.0022,0.0000,0.0022,40.1875,-20.6875,-42.8750,350.6875,6.2500,1.8750
42678,1.0000,-0.3000,9.3600,-0.0011,0.0044,-0.0011,39.3750,-19.1875,-40.8750,350.6875,6.2500,1.8750
42741,1.0200,-0.2700,9.3600,-0.0011,-0.0011,-0.0022,39.0000,-18.5000,-42.0000,350.6875,6.2500,1.8750
42804,1.0200,-0.2500,9.3500,-0.0011,-0.0022,0.0011,39.3750,-19.8750,-42.0000,350.6875,6.2500,1.8750
42868,1.0400,-0.2800,9.3600,0.0011,0.0011,-0.0011,39.7500,-18.7500,-42.0000,350.6875,6.2500,1.8750
42930,1.0200,-0.3000,9.3700,-0.0011,-0.0011,0.0000,39.7500,-19.8750,-41.2500,350.6875,6.2500,1.8750
42994,1.0100,-0.2900,9.3400,0.0000,-0.0011,-0.0011,38.2500,-19.1875,-41.1875,350.6875,6.2500,1.8750
43059,1.0100,-0.2700,9.3600,0.0011,-0.0011,0.0011,38.2500,-19.8750,-42.0000,350.6875,6.2500,1.8750
43122,1.0100,-0.3000,9.3700,-0.0011,0.0033,-0.0011,39.0000,-19.8750,-42.0000,350.6875,6.2500,1.8750
43185,1.0000,-0.3000,9.3700,-0.0022,0.0000,-0.0033,40.1875,-19.5625,-42.0000,350.6875,6.2500,1.8750
43250,1.0300,-0.3000,9.3600,0.0000,0.0011,0.0011,39.7500,-19.1875,-40.8750,350.6875,6.2500,1.8750
43312,1.0100,-0.2600,9.3700,-0.0011,0.0022,0.0000,39.0000,-19.5625,-41.1875,350.6875,6.2500,1.8750
43377,1.0200,-0.3000,9.3600,-0.0022,0.0011,0.0000,39.7500,-19.1875,-41.1875,350.6875,6.2500,1.8750
43440,1.0200,-0.3100,9.3600,-0.0011,0.0022,0.0011,39.0000,-19.8750,-41.6875,350.6875,6.2500,1.8750
43503,1.0100,-0.3200,9.3200,-0.0022,0.0033,0.0011,40.5000,-19.5625,-41.6875,350.6875,6.2500,1.8750
43564,1.0100,-0.2800,9.3500,-0.0022,0.0022,-0.0011,39.7500,-19.1875,-42.3750,350.6875,6.2500,1.8750
43630,1.0200,-0.2700,9.3400,0.0000,0.0000,-0.0011,39.7500,-19.1875,-41.6875,350.6875,6.2500,1.8750
43692,1.0300,-0.3000,9.3600,0.0033,-0.0011,0.0011,38.2500,-19.8750,-40.5000,350.6875,6.2500,1.8750
43756,1.0100,-0.2900,9.3600,0.0022,0.0000,0.0011,39.0000,-19.1875,-42.0000,350.6875,6.2500,1.8750
43819,1.0100,-0.2800,9.3900,0.0011,0.0000,0.0000,40.5000,-20.2500,-41.1875,350.6875,6.2500,1.8750
43882,1.0100,-0.2800,9.3600,0.0022,0.0022,0.0011,39.3750,-19.8750,-40.0000,350.6875,6.2500,1.8750
43945,1.0200,-0.3000,9.3500,0.0022,0.0011,0.0022,39.7500,-20.2500,-40.5000,350.6875,6.2500,1.8750
44011,1.0200,-0.2900,9.3400,0.0022,-0.0011,0.0044,38.2500,-19.8750,-42.0000,350.6875,6.2500,1.8750
44073,1.0100,-0.2800,9.3700,-0.0011,0.0033,-0.0011,38.6875,-19.8750,-41.5625,350.6875,6.2500,1.8750
44137,1.0300,-0.2900,9.3600,-0.0033,-0.0022,-0.0055,39.7500,-19.1875,-42.3750,350.6875,6.2500,1.8750
44201,1.0300,-0.2800,9.3200,0.0033,-0.0065,-0.0076,38.6875,-19.1875,-41.6875,350.6875,6.2500,1.8750
44264,1.0300,-0.2800,9.3600,0.0044,-0.0011,-0.0011,39.3750,-19.5625,-40.8750,350.6875,6.2500,1.8750
44328,1.0100,-0.2800,9.3500,0.0011,-0.0011,0.0011,38.6875,-19.8750,-41.6875,350.6875,6.2500,1.8750
44392,1.0100,-0.2900,9.3600,-0.0011,0.0000,-0.0055,38.2500,-18.7500,-42.0000,350.6875,6.2500,1.8750
44454,0.9900,-0.2700,9.3400,0.0022,-0.0011,-0.0022,39.0000,-20.6875,-41.2500,350.6875,6.2500,1.8750
44516,1.0100,-0.2700,9.3500,0.0033,0.0011,-0.0011,39.7500,-19.5625,-41.1875,350.6875,6.2500,1.8750
44581,1.0200,-0.3000,9.3400,0.0000,-0.0044,0.0000,39.7500,-19.8750,-42.3750,350.6875,6.2500,1.8750
44644,1.0100,-0.2800,9.3500,-0.0011,0.0022,0.0011,40.5000,-19.8750,-41.6875,350.6875,6.2500,1.8750
44707,1.0300,-0.2800,9.3500,-0.0044,0.0033,0.0011,38.6875,-19.5625,-42.0000,350.6875,6.2500,1.8750
44770,1.0300,-0.2800,9.3600,0.0000,0.0000,0.0000,38.6875,-19.1875,-43.1875,350.6875,6.2500,1.8750
44833,1.0100,-0.2700,9.3300,-0.0011,0.0000,0.0011,39.7500,-19.5625,-40.5000,350.6875,6.2500,1.8750
44896,1.0300,-0.3000,9.3400,0.0000,-0.0011,0.0000,38.6875,-19.5625,-41.6875,350.6875,6.2500,1.8750
44962,1.0100,-0.2800,9.3400,0.0000,0.0044,0.0000,38.6875,-19.5625,-40.8750,350.6875,6.2500,1.8750
45023,1.0100,-0.2700,9.3400,0.0000,0.0000,0.0011,39.0000,-19.5625,-41.6875,350.6875,6.2500,1.8750
45088,1.0000,-0.2900,9.3600,-0.0011,0.0022,0.0000,39.0000,-19.1875,-41.6875,350.6875,6.2500,1.8750
45152,1.0100,-0.2900,9.3500,-0.0011,-0.0044,0.0011,38.6875,-20.2500,-42.0000,350.6875,6.2500,1.8750
45214,1.0100,-0.3200,9.3500,0.0033,0.0000,0.0011,39.3750,-19.8750,-41.6875,350.6875,6.2500,1.8750
45278,1.0200,-0.2800,9.3400,0.0000,-0.0022,0.0011,38.6875,-19.8750,-42.0000,350.6875,6.2500,1.8750
45343,1.0100,-0.2800,9.3600,0.0011,-0.0033,0.0000,40.1875,-19.5625,-42.0000,350.6875,6.2500,1.8750
45404,1.0200,-0.3100,9.3400,0.0044,-0.0022,0.0022,39.3750,-19.1875,-41.5625,350.6875,6.2500,1.8750
45467,1.0300,-0.2600,9.3400,-0.0033,0.0065,0.0098,39.3750,-19.1875,-40.8750,350.6875,6.2500,1.8750
45531,1.0000,-0.2800,9.3600,-0.0011,0.0033,-0.0011,39.3750,-19.8750,-40.8750,350.6875,6.2500,1.8750
45595,1.0100,-0.2600,9.3500,-0.0022,0.0044,-0.0033,39.7500,-19.8750,-42.0000,350.6875,6.2500,1.8750
45658,1.0100,-0.2900,9.3800,0.0044,-0.0022,-0.0022,39.7500,-19.1875,-42.3750,350.6875,6.2500,1.8750
45722,1.0300,-0.2900,9.3500,-0.0055,-0.0022,-0.0011,40.1875,-19.8750,-40.8750,350.6875,6.2500,1.8750
45784,1.0000,-0.2800,9.3800,0.0011,-0.0033,-0.0022,39.0000,-19.5625,-41.2500,350.6875,6.2500,1.8750
45849,1.0100,-0.2900,9.3500,0.0011,-0.0033,-0.0044,40.1875,-18.7500,-40.8750,350.6875,6.2500,1.8750
45913,1.0000,-0.2800,9.3300,0.0076,-0.0011,-0.0011,39.0000,-19.1875,-41.6875,350.6875,6.2500,1.8750
45975,1.0200,-0.3100,9.3900,0.0033,0.0011,0.0000,39.3750,-19.5625,-42.0000,350.6875,6.2500,1.8750
46039,1.0100,-0.2700,9.3300,-0.0033,0.0022,0.0044,39.3750,-20.2500,-41.1875,350.6875,6.2500,1.8750
46104,1.0100,-0.2400,9.3200,-0.0033,0.0000,0.0000,39.3750,-19.5625,-40.8750,350.6875,6.2500,1.8750
46165,1.0000,-0.2900,9.3600,0.0207,-0.0251,-0.0360,39.0000,-19.5625,-41.2500,350.7500,6.2500,1.8125
46230,1.0300,-0.3100,9.3300,0.0044,-0.0055,-0.0044,38.6875,-19.1875,-41.1875,350.8125,6.3125,1.8125
46294,1.0300,-0.3000,9.3700,-0.0055,0.0055,-0.0033,38.6875,-19.8750,-42.3750,350.8125,6.3125,1.8125
46357,1.0200,-0.2500,9.3500,0.0065,0.0000,0.0033,39.0000,-18.5000,-42.7500,350.8125,6.3125,1.8125
46419,1.0400,-0.3000,9.3800,-0.0044,0.0033,-0.0011,38.6875,-19.5625,-41.2500,350.8125,6.3125,1.8125
46484,1.0400,-0.2900,9.3500,0.0000,-0.0033,-0.0022,39.0000,-19.5625,-41.6875,350.8125,6.3125,1.8125
46545,1.0200,-0.2800,9.3400,0.0000,-0.0022,-0.0022,39.7500,-19.8750,-41.6875,350.8125,6.3125,1.8125
46610,1.0200,-0.2500,9.3500,0.0033,-0.0011,-0.0022,39.7500,-18.7500,-42.0000,350.8125,6.3125,1.8125
46673,1.0200,-0.3200,9.3500,0.0000,-0.0022,-0.0011,40.5000,-19.1875,-41.2500,350.8125,6.3125,1.8125
46736,1.0300,-0.2800,9.3400,0.0011,0.0000,-0.0011,39.7500,-19.5625,-42.0000,350.8125,6.3125,1.8125
46800,1.0300,-0.2700,9.3600,-0.0022,0.0011,-0.0022,39.0000,-19.1875,-42.0000,350.8125,6.3125,1.8125
46865,1.0400,-0.2700,9.3600,0.0055,-0.0022,0.0011,39.0000,-20.6875,-42.0000,350.8125,6.3125,1.8125
46927,1.0100,-0.2300,9.3400,-0.0022,0.0087,0.0098,39.3750,-19.5625,-41.6875,350.8125,6.3125,1.8125
46992,1.0300,-0.3100,9.3500,-0.0109,0.0022,-0.0044,39.3750,-19.8750,-42.0000,350.8125,6.3125,1.8125
47055,1.0300,-0.2800,9.3400,0.0065,-0.0033,-0.0120,39.3750,-19.5625,-40.5000,350.8125,6.3125,1.8125
47117,1.0200,-0.3100,9.3800,0.0044,-0.0055,0.0011,39.3750,-20.2500,-41.1875,350.8125,6.3125,1.8125
47183,1.0300,-0.2800,9.3600,0.0065,-0.0011,-0.0033,39.7500,-19.5625,-41.6875,350.8125,6.3125,1.8125
47245,1.0300,-0.2600,9.3500,-0.0022,-0.0011,-0.0022,39.7500,-19.1875,-41.6875,350.8125,6.3125,1.8125
47309,1.0200,-0.2900,9.3700,-0.0044,0.0055,-0.0033,38.6875,-19.1875,-41.1875,350.8125,6.3125,1.8125
47372,1.0100,-0.2600,9.3500,0.0076,-0.0011,-0.0011,39.0000,-19.1875,-40.8750,350.8125,6.3125,1.8125
47436,1.0300,-0.3200,9.3600,0.0000,0.0087,0.0131,39.7500,-18.5000,-40.5000,350.8125,6.3125,1.8125
47499,1.0000,-0.2600,9.3500,0.0000,0.0022,-0.0044,39.0000,-18.7500,-42.0000,350.8125,6.3125,1.8125
47564,1.0000,-0.3000,9.3500,0.0033,-0.0044,-0.0109,39.0000,-19.1875,-42.0000,350.8125,6.3125,1.8125
47626,1.0400,-0.2700,9.3400,0.0000,-0.0033,0.0000,39.0000,-19.5625,-42.0000,350.8125,6.3125,1.8125
47691,1.0300,-0.3100,9.3800,-0.0033,0.0000,-0.0033,39.0000,-19.1875,-41.6875,350.8125,6.3125,1.8125
47755,1.0000,-0.2400,9.3500,0.0109,-0.0033,0.0055,39.3750,-18.7500,-40.8750,350.8125,6.3125,1.8125
47818,1.0300,-0.3000,9.3700,0.0011,0.0033,-0.0011,39.7500,-19.5625,-42.3750,350.8125,6.3125,1.8125
47881,1.0200,-0.2900,9.3600,0.0011,-0.0055,-0.0022,40.1875,-19.1875,-41.6875,350.8125,6.3125,1.8125
47946,1.0300,-0.3200,9.3500,-0.0065,0.0022,-0.0022,39.7500,-19.1875,-41.6875,350.8125,6.3125,1.8125
48007,1.0100,-0.2700,9.3600,0.0022,-0.0011,-0.0033,39.0000,-20.2500,-41.6875,350.8125,6.3125,1.8125
48070,1.0200,-0.2600,9.3500,0.0011,0.0022,-0.0033,39.3750,-19.5625,-40.8750,350.8125,6.3125,1.8125
48135,1.0100,-0.3000,9.3600,0.0000,0.0000,0.0000,38.6875,-18.5000,-42.0000,350.8125,6.3125,1.8125
48198,1.0300,-0.2700,9.3500,-0.0022,0.0011,0.0011,39.3750,-19.1875,-42.3750,350.8125,6.3125,1.8125
48261,1.0100,-0.2800,9.3600,0.0022,-0.0065,-0.0011,39.0000,-19.5625,-40.8750,350.8125,6.3125,1.8125
48326,1.0200,-0.2900,9.3500,0.0000,0.0011,-0.0011,39.3750,-19.1875,-42.0000,350.8125,6.3125,1.8125
48387,1.0300,-0.2900,9.3800,-0.0011,0.0000,0.0000,40.1875,-19.8750,-41.1875,350.8125,6.3125,1.8125
48452,1.0300,-0.2900,9.3200,0.0033,-0.0033,-0.0033,40.1875,-19.8750,-41.6875,350.8125,6.3125,1.8125
48516,1.0200,-0.2800,9.3400,0.0000,0.0011,0.0011,40.5000,-19.1875,-41.1875,350.8125,6.3125,1.8125
48579,1.0200,-0.2900,9.3600,-0.0011,-0.0022,-0.0011,39.7500,-19.5625,-42.7500,350.8125,6.3125,1.8125
48642,1.0200,-0.2900,9.3600,0.0000,0.0000,-0.0022,40.1875,-19.1875,-41.6875,350.8125,6.3125,1.8125
48707,1.0300,-0.2800,9.3400,0.0000,0.0022,0.0011,39.7500,-19.1875,-42.3750,350.8125,6.3125,1.8125
48768,1.0300,-0.2900,9.3600,0.0011,-0.0033,0.0000,39.3750,-19.8750,-41.1875,350.8125,6.3125,1.8125
48833,1.0200,-0.2800,9.3700,0.0011,-0.0044,-0.0011,40.5000,-19.8750,-41.6875,350.8125,6.3125,1.8125
48897,1.0100,-0.3100,9.3600,0.0000,0.0011,-0.0011,39.7500,-19.5625,-41.6875,350.8125,6.3125,1.8125
48960,1.0000,-0.2700,9.3200,-0.0044,0.0011,0.0000,39.3750,-19.5625,-41.2500,350.8125,6.3125,1.8125
49021,1.0200,-0.2800,9.3700,-0.0011,0.0011,0.0011,40.1875,-20.2500,-42.0000,350.8125,6.3125,1.8125
49087,1.0300,-0.2900,9.3700,0.0022,-0.0011,0.0022,38.6875,-19.8750,-42.0000,350.8125,6.3125,1.8125
49149,1.0400,-0.2900,9.3700,0.0044,0.0055,0.0000,39.0000,-20.2500,-42.0000,350.8125,6.3125,1.8125
49213,1.0200,-0.2800,9.3600,0.0000,0.0022,0.0000,39.3750,-19.8750,-41.1875,350.8125,6.3125,1.8125
49276,1.0100,-0.2700,9.3600,-0.0065,0.0065,0.0011,39.3750,-19.1875,-41.6875,350.8125,6.3125,1.8125
49339,1.0200,-0.2500,9.3500,0.0022,0.0000,-0.0076,45.2500,3.5625,-58.6875,350.8125,6.3125,1.8125
49402,1.0200,-0.3000,9.3400,0.0000,0.0011,0.0000,44.0625,3.5625,-59.3750,350.8125,6.3125,1.8125
49467,1.0200,-0.2700,9.3400,-0.0033,0.0033,0.0000,44.8750,3.5625,-58.5625,350.8125,6.3125,1.8125
49529,1.0400,-0.2900,9.3700,0.0055,-0.0065,-0.0065,45.2500,3.5625,-58.6875,350.8125,6.3125,1.8125
49594,1.0200,-0.2900,9.3600,0.0000,-0.0022,-0.0022,44.5000,4.3750,-59.3750,350.8125,6.3125,1.8125
49657,1.0100,-0.2700,9.3400,0.0000,0.0022,-0.0011,44.5000,2.8750,-58.6875,350.8125,6.3125,1.8125
49719,1.0300,-0.3200,9.3600,0.0000,-0.0033,0.0011,45.2500,3.5625,-58.2500,350.8125,6.3125,1.8125
49784,1.0200,-0.2300,9.3600,0.0033,-0.0022,0.0044,43.7500,3.5625,-59.0625,350.8125,6.3125,1.8125
49847,1.0300,-0.3100,9.3700,-0.0022,0.0000,0.0022,45.2500,4.3750,-58.2500,350.8125,6.3125,1.8125
49910,1.0100,-0.2600,9.3400,-0.0022,-0.0011,0.0022,44.8750,3.5625,-60.1875,350.8125,6.3125,1.8125
49972,1.0200,-0.3000,9.3800,-0.0022,-0.0011,-0.0011,44.0625,3.5625,-58.2500,350.8125,6.3125,1.8125
50037,1.0200,-0.2600,9.3400,0.0087,0.0022,-0.0011,44.5000,4.0000,-58.5625,350.8125,6.3125,1.8125
50099,1.0300,-0.2800,9.3500,0.0055,0.0033,-0.0011,44.0625,4.3750,-59.0625,350.8125,6.3125,1.8125
50164,1.0300,-0.2900,9.3700,-0.0011,-0.0033,0.0055,44.5000,3.5625,-59.0625,350.8125,6.3125,1.8125
50227,1.0100,-0.2700,9.3600,0.0011,0.0033,0.0033,44.8750,2.5000,-58.6875,350.8125,6.3125,1.8125
50290,1.0400,-0.2900,9.3700,0.0011,0.0033,0.0022,44.5000,2.8750,-59.0000,350.8125,6.3125,1.8125
50353,1.0300,-0.2700,9.3200,0.0000,0.0011,0.0076,44.0625,3.5625,-60.1875,350.8125,6.3125,1.8125
50418,1.0300,-0.2700,9.3100,-0.0087,0.0044,-0.0011,44.0625,4.0000,-59.0625,350.8125,6.3125,1.8125
50480,1.0000,-0.2700,9.3700,0.0011,0.0000,-0.0011,44.8750,3.5625,-58.6875,350.8125,6.3125,1.8125
50544,1.0400,-0.3200,9.3500,0.0076,-0.0142,-0.0153,43.7500,3.5625,-59.3750,350.8125,6.3125,1.8125
50608,1.0200,-0.2600,9.3500,0.0055,-0.0055,-0.0011,43.7500,4.0000,-59.0625,350.8750,6.3750,1.8125
50671,1.0500,-0.3000,9.3700,0.0022,-0.0098,-0.0185,44.8750,3.5625,-59.3750,350.8750,6.3750,1.8125
50735,1.0400,-0.3200,9.3600,0.0044,-0.0065,0.0033,44.8750,2.8750,-58.5625,350.9375,6.3750,1.7500
50799,1.0200,-0.2800,9.3500,-0.0033,0.0087,0.0131,43.3750,3.5625,-59.0000,350.8750,6.3750,1.7500
50861,1.0400,-0.2600,9.3400,0.0033,-0.0022,-0.0055,44.5000,4.0000,-59.3750,350.8750,6.3750,1.7500
50924,1.0200,-0.2800,9.3500,0.0065,-0.0011,-0.0011,44.8750,2.1875,-61.0000,350.8750,6.3750,1.7500
50988,1.0400,-0.3000,9.3500,-0.0022,-0.0011,0.0011,46.0000,4.0000,-60.1875,350.8750,6.3750,1.7500
51051,1.0100,-0.2500,9.3600,-0.0033,0.0011,0.0000,44.8750,3.5625,-59.7500,350.8750,6.3750,1.7500
51114,1.0500,-0.2900,9.3500,0.0044,0.0000,0.0011,44.5000,2.8750,-60.2500,350.8750,6.3750,1.7500
51178,1.0200,-0.2400,9.3700,0.0022,-0.0011,0.0033,44.8750,3.5625,-60.2500,350.8750,6.3750,1.7500
51240,1.0300,-0.2800,9.3500,0.0000,-0.0011,-0.0022,43.0625,4.3750,-57.8750,350.8750,6.3750,1.7500
51305,1.0200,-0.2900,9.3300,-0.0011,0.0000,-0.0022,44.0625,3.2500,-59.3750,350.8750,6.3750,1.7500
51369,1.0500,-0.2900,9.3500,0.0087,-0.0065,0.0000,44.8750,4.0000,-60.5625,350.8750,6.3750,1.7500
51432,1.0200,-0.2800,9.3700,-0.0022,0.0065,0.0065,43.7500,3.5625,-60.1875,350.8750,6.3750,1.7500
51495,1.0200,-0.2600,9.3400,0.0044,0.0011,0.0087,44.5000,4.3750,-59.0625,350.8750,6.3750,1.7500
51560,1.0200,-0.2600,9.3100,-0.0011,-0.0011,-0.0055,44.5000,3.5625,-58.2500,350.8750,6.3750,1.7500
51622,1.0200,-0.3100,9.3700,-0.0022,-0.0011,-0.0076,44.5000,3.2500,-59.3750,350.8750,6.3750,1.7500
51687,1.0300,-0.2900,9.3500,0.0022,-0.0065,-0.0044,44.8750,3.5625,-60.2500,350.8750,6.3750,1.7500
51750,0.9800,-0.2600,9.3500,0.0055,-0.0022,-0.0011,45.5625,4.0000,-59.3750,350.8750,6.3750,1.7500
51813,1.0200,-0.2400,9.3400,-0.0022,0.0000,0.0044,44.8750,3.5625,-59.7500,350.8750,6.3750,1.7500
51874,1.0100,-0.2600,9.3500,-0.0109,0.0022,-0.0044,44.8750,3.2500,-59.7500,350.8750,6.3750,1.7500
51940,1.0000,-0.2500,9.3500,-0.0022,0.0033,-0.0076,45.2500,3.5625,-59.0625,350.8750,6.3750,1.7500
52002,1.0100,-0.3300,9.3900,0.0087,-0.0131,-0.0142,43.7500,3.5625,-59.0625,350.9375,6.3750,1.7500
52065,1.0200,-0.2800,9.3700,-0.0022,-0.0011,-0.0055,44.8750,3.2500,-59.0625,350.9375,6.3750,1.7500
52129,1.0200,-0.2500,9.3400,-0.0033,0.0011,-0.0065,44.0625,3.2500,-59.3750,350.9375,6.3750,1.7500
52191,1.0100,-0.2500,9.3500,0.0120,-0.0142,-0.0273,44.8750,3.5625,-59.0625,351.0000,6.3750,1.7500
52256,1.0300,-0.2700,9.3100,0.0076,-0.0185,-0.0371,27.0000,1.8750,-35.6875,351.0625,6.4375,1.7500
52320,1.0600,-0.3900,9.3700,-0.0120,-0.0044,-0.0098,26.8750,2.5625,-34.6875,351.1875,6.5000,1.7500
52382,1.0100,-0.1800,9.3200,-0.0076,0.0055,0.0033,27.5625,2.5625,-35.8750,351.1875,6.5000,1.6875
52446,1.0600,-0.3100,9.3800,0.0022,0.0033,-0.0022,26.3750,2.1875,-36.5625,351.1875,6.5000,1.7500
52511,1.0400,-0.2200,9.3100,-0.0022,0.0000,-0.0055,26.3750,1.8750,-36.5625,351.1875,6.5000,1.7500
52572,1.0400,-0.3700,9.3800,0.0044,-0.0087,-0.0175,27.1875,2.5625,-35.8750,351.2500,6.5000,1.7500
52637,1.0500,-0.2200,9.3600,0.0065,-0.0076,-0.0011,26.7500,2.1875,-35.3750,351.2500,6.5625,1.6875
52701,1.0400,-0.2900,9.3700,-0.0055,0.0011,-0.0033,26.3750,2.5625,-35.8750,351.2500,6.5625,1.6875
52764,1.0500,-0.2600,9.3100,-0.0044,-0.0011,-0.0044,27.5625,2.5625,-35.5000,351.2500,6.5625,1.6875
52826,1.0400,-0.2400,9.3600,0.0044,0.0011,-0.0033,26.0625,2.5625,-36.1875,351.2500,6.5625,1.6875
52891,1.0400,-0.2500,9.3300,0.0022,-0.0055,-0.0033,27.5625,2.1875,-35.8750,351.2500,6.5625,1.6875
52953,1.0500,-0.3100,9.3300,-0.0033,-0.0011,-0.0033,27.1875,1.5000,-35.8750,351.2500,6.5625,1.6875
53017,1.0400,-0.2700,9.3500,-0.0011,-0.0033,-0.0022,26.7500,2.5625,-35.8750,351.2500,6.5625,1.6875
53080,1.0200,-0.2500,9.3600,-0.0033,0.0087,0.0044,26.3750,2.5625,-35.8750,351.2500,6.5625,1.6875
53143,1.0600,-0.2900,9.3700,-0.0044,0.0065,-0.0033,27.5625,1.8750,-35.8750,351.2500,6.5625,1.6875
53207,1.0300,-0.2900,9.3400,0.0011,0.0022,-0.0065,26.3750,1.8750,-35.0625,351.2500,6.5625,1.6875
53272,1.0300,-0.2500,9.3700,0.0011,-0.0033,-0.0044,26.7500,1.5000,-35.8750,351.2500,6.5625,1.6875
53333,1.0600,-0.3000,9.3600,-0.0044,-0.0022,-0.0055,27.1875,1.8750,-36.1875,351.2500,6.5625,1.6875
53398,1.0500,-0.3000,9.3500,0.0022,0.0033,-0.0022,27.1875,2.5625,-35.5000,351.2500,6.5625,1.6875
53462,1.0400,-0.2700,9.3400,0.0065,-0.0033,0.0011,26.0625,2.1875,-37.0000,351.2500,6.5625,1.6875
53524,1.0300,-0.3000,9.3800,0.0011,-0.0011,0.0000,26.0625,2.1875,-36.5625,351.2500,6.5625,1.6875
53588,1.0400,-0.2700,9.3700,0.0022,-0.0011,-0.0022,27.1875,2.1875,-36.1875,351.2500,6.5625,1.6875
53652,1.0500,-0.2700,9.3600,0.0033,0.0000,-0.0011,26.7500,3.0000,-36.1875,351.2500,6.5625,1.6875
53714,1.0300,-0.2600,9.3700,0.0011,-0.0022,0.0000,27.1875,2.1875,-36.5625,351.2500,6.5625,1.6875
53777,1.0300,-0.3200,9.3500,-0.0044,0.0055,-0.0011,26.7500,1.0625,-36.5625,351.2500,6.5625,1.6875
53841,1.0500,-0.2400,9.3400,0.0033,-0.0033,0.0011,26.7500,2.1875,-35.5000,351.2500,6.5625,1.6875
53904,1.0600,-0.3300,9.3800,0.0000,-0.0033,0.0011,26.7500,2.1875,-35.3750,351.2500,6.5625,1.6875
53968,1.0400,-0.2500,9.3000,0.0000,0.0022,0.0098,26.0625,1.0625,-36.5625,351.2500,6.5625,1.6875
54032,1.0200,-0.2700,9.3700,-0.0044,0.0044,-0.0011,27.8750,3.0000,-37.0000,351.2500,6.5625,1.6875
54094,1.0100,-0.2600,9.3700,0.0022,-0.0044,-0.0044,26.0625,1.5000,-35.3750,351.2500,6.5625,1.6875
54159,1.0300,-0.2800,9.3600,0.0022,0.0000,-0.0033,27.1875,1.8750,-36.5625,351.2500,6.5625,1.6875
54223,1.0500,-0.2700,9.3700,0.0011,-0.0044,0.0011,26.7500,2.5625,-37.3750,351.2500,6.5625,1.6875
54284,1.0300,-0.3000,9.3900,-0.0022,-0.0022,0.0000,26.7500,2.5625,-37.0000,351.2500,6.5625,1.6875
54349,1.0300,-0.2500,9.3600,-0.0011,0.0022,0.0000,26.3750,2.1875,-35.5000,351.2500,6.5625,1.6875
54412,1.0200,-0.2700,9.3200,-0.0022,0.0044,-0.0011,27.8750,1.8750,-36.1875,351.2500,6.5625,1.6875
54475,1.0500,-0.2900,9.3600,0.0044,0.0000,0.0000,26.7500,1.8750,-35.8750,351.2500,6.5625,1.6875
54539,1.0300,-0.2600,9.3400,0.0044,-0.0022,0.0000,27.1875,1.8750,-36.1875,351.2500,6.5625,1.6875
54603,1.0500,-0.2700,9.3300,-0.0098,0.0065,0.0011,26.3750,1.8750,-36.1875,351.2500,6.5625,1.6875
54665,1.0300,-0.2800,9.3500,0.0076,-0.0011,-0.0055,26.7500,1.8750,-36.5625,351.2500,6.5625,1.6875
54728,1.0400,-0.3000,9.3400,0.0022,-0.0033,0.0011,26.3750,2.5625,-35.8750,351.2500,6.5625,1.6875
54792,1.0400,-0.2700,9.3600,-0.0033,-0.0022,0.0022,27.5625,2.1875,-36.5625,351.2500,6.5625,1.6875
54855,1.0300,-0.2600,9.3500,-0.0076,0.0011,0.0044,26.3750,1.8750,-36.1875,351.2500,6.5625,1.6875
54919,1.0200,-0.2800,9.3600,0.0076,0.0000,0.0033,27.1875,1.8750,-37.0625,351.2500,6.5625,1.6875
54983,1.0300,-0.2600,9.3600,0.0033,0.0022,0.0000,26.7500,2.1875,-36.1875,351.2500,6.5625,1.6875
55045,1.0500,-0.2800,9.3500,-0.0044,0.0033,0.0000,27.1875,1.8750,-35.3750,351.2500,6.5625,1.6875
55109,1.0600,-0.2900,9.3300,-0.0055,0.0011,0.0000,27.8750,1.5000,-36.5625,351.2500,6.5625,1.6875
55173,1.0400,-0.2700,9.3600,0.0011,0.0033,0.0022,26.7500,1.0625,-35.8750,351.2500,6.5625,1.6875
55236,1.0500,-0.2700,9.3700,0.0033,0.0022,0.0000,26.7500,1.8750,-37.0000,351.2500,6.5625,1.6875
55299,1.0400,-0.2700,9.3700,0.0022,0.0011,0.0011,26.7500,1.5000,-37.0625,351.2500,6.5625,1.6875
55364,1.0300,-0.2800,9.3500,-0.0033,0.0011,0.0000,26.3750,1.8750,-36.1875,351.2500,6.5625,1.6875
55426,1.0500,-0.2700,9.3600,-0.0011,0.0000,0.0011,27.1875,1.8750,-37.0000,351.2500,6.5625,1.6875
55491,1.0400,-0.2700,9.3400,-0.0033,0.0033,-0.0011,26.7500,3.0000,-36.1875,351.2500,6.5625,1.6875
55554,1.0100,-0.2700,9.3300,0.0022,-0.0011,-0.0011,28.2500,2.1875,-37.0000,351.2500,6.5625,1.6875
55617,1.0400,-0.2500,9.3400,0.0011,0.0000,-0.0022,26.3750,1.5000,-36.5625,351.2500,6.5625,1.6875
55679,1.0300,-0.2500,9.3600,-0.0022,0.0000,-0.0011,26.3750,2.5625,-36.5625,351.2500,6.5625,1.6875
55744,1.0300,-0.2700,9.3500,-0.0022,0.0011,0.0000,26.7500,2.1875,-35.8750,351.2500,6.5625,1.6875
55806,1.0200,-0.2900,9.3500,0.0022,-0.0011,-0.0022,26.7500,1.5000,-36.1875,351.2500,6.5625,1.6875
55871,1.0300,-0.2600,9.3700,0.0011,0.0022,-0.0011,27.1875,2.1875,-35.8750,351.2500,6.5625,1.6875
55934,1.0500,-0.2900,9.3500,-0.0022,-0.0011,0.0000,27.5625,2.1875,-35.3750,351.2500,6.5625,1.6875
55997,1.0400,-0.2800,9.3500,-0.0022,-0.0022,0.0000,26.0625,2.1875,-35.8750,351.2500,6.5625,1.6875
56060,1.0400,-0.2700,9.3300,0.0011,-0.0033,0.0011,27.5625,2.5625,-35.5000,351.2500,6.5625,1.6875
56125,1.0400,-0.2800,9.3300,-0.0044,0.0011,0.0022,26.7500,2.1875,-36.1875,351.2500,6.5625,1.6875
56187,1.0700,-0.2800,9.3600,-0.0011,-0.0011,-0.0011,27.8750,2.5625,-36.1875,351.2500,6.5625,1.6875
56252,1.0500,-0.2700,9.3600,0.0011,-0.0011,-0.0022,26.7500,1.5000,-36.5625,351.2500,6.5625,1.6875
56315,1.0500,-0.2700,9.3300,0.0011,0.0000,-0.0011,26.3750,1.5000,-37.3750,351.2500,6.5625,1.6875
56378,1.0200,-0.2700,9.3600,0.0000,-0.0011,0.0011,27.5625,1.8750,-36.6875,351.2500,6.5625,1.6875
56442,1.0300,-0.2900,9.3600,0.0022,0.0000,0.0000,26.7500,2.5625,-35.7500,351.2500,6.5625,1.6875
56506,1.0300,-0.2700,9.3700,0.0022,0.0011,0.0011,27.1875,1.0625,-36.1875,351.2500,6.5625,1.6875
56568,1.0500,-0.2800,9.3500,-0.0011,-0.0011,0.0011,25.6875,2.1875,-36.5625,351.2500,6.5625,1.6875
56630,1.0200,-0.2700,9.3600,-0.0022,0.0000,-0.0011,27.1875,1.8750,-37.0000,351.2500,6.5625,1.6875
56695,1.0400,-0.2700,9.3600,0.0011,-0.0011,0.0011,26.3750,1.0625,-36.5625,351.2500,6.5625,1.6875
56757,1.0400,-0.2800,9.3600,0.0000,0.0011,0.0022,27.5625,2.1875,-35.3750,351.2500,6.5625,1.6875
56822,1.0400,-0.2600,9.3700,-0.0011,0.0000,-0.0011,26.3750,2.5625,-37.3750,351.2500,6.5625,1.6875
56885,1.0500,-0.2800,9.3600,0.0000,0.0011,0.0022,26.7500,2.5625,-36.5625,351.2500,6.5625,1.6875
56948,1.0200,-0.2800,9.3500,0.0011,-0.0022,-0.0011,27.8750,2.5625,-35.3750,351.2500,6.5625,1.6875
57011,1.0500,-0.2600,9.3600,0.0011,0.0022,-0.0022,27.1875,1.8750,-37.3750,351.2500,6.5625,1.6875
57076,1.0200,-0.2700,9.3400,0.0000,-0.0022,0.0000,26.3750,1.5000,-36.1875,351.2500,6.5625,1.6875
57138,1.0300,-0.3000,9.3900,0.0022,0.0000,0.0000,26.0625,1.8750,-35.8750,351.2500,6.5625,1.6875
57203,1.0300,-0.2700,9.3400,0.0000,-0.0033,0.0000,27.1875,3.0000,-36.1875,351.2500,6.5625,1.6875
57266,1.0400,-0.2700,9.3500,0.0011,0.0022,0.0000,27.1875,1.8750,-36.1875,351.2500,6.5625,1.6875
57329,1.0400,-0.2700,9.3700,-0.0022,0.0022,0.0011,26.7500,2.5625,-35.8750,351.2500,6.5625,1.6875
57393,1.0300,-0.2800,9.3600,0.0022,0.0000,-0.0033,26.7500,2.1875,-36.5625,351.2500,6.5625,1.6875
57457,1.0200,-0.2800,9.3600,-0.0033,0.0011,0.0000,27.1875,2.1875,-36.1875,351.2500,6.5625,1.6875
57519,1.0200,-0.2700,9.3600,0.0000,-0.0033,-0.0011,27.1875,3.2500,-36.1875,351.2500,6.5625,1.6875
57582,1.0400,-0.2800,9.3700,0.0000,0.0033,0.0000,27.1875,0.7500,-35.5000,351.2500,6.5625,1.6875
57646,1.0500,-0.2800,9.3500,0.0000,0.0033,-0.0011,27.5625,2.1875,-35.5000,351.2500,6.5625,1.6875
57709,1.0200,-0.2700,9.3600,-0.0022,0.0022,0.0000,26.7500,1.8750,-35.7500,351.2500,6.5625,1.6875
57773,1.0400,-0.2400,9.3300,0.0000,-0.0011,0.0011,26.7500,3.0000,-35.5000,351.2500,6.5625,1.6875
57837,1.0500,-0.2900,9.3600,0.0011,0.0011,0.0011,26.3750,1.8750,-37.0000,351.2500,6.5625,1.6875
57899,1.0400,-0.2800,9.3700,0.0000,-0.0022,0.0000,26.0625,2.1875,-35.0625,351.2500,6.5625,1.6875
57963,1.0200,-0.2600,9.3300,0.0000,-0.0022,0.0011,27.5625,2.1875,-36.1875,351.2500,6.5625,1.6875
58027,1.0300,-0.2900,9.3300,-0.0022,0.0000,0.0000,26.7500,3.2500,-35.7500,351.2500,6.5625,1.6875
58090,1.0500,-0.2800,9.3500,0.0011,-0.0022,-0.0011,26.3750,2.5625,-35.8750,351.2500,6.5625,1.6875
58153,1.0500,-0.2700,9.3600,-0.0022,0.0000,0.0011,27.1875,2.1875,-35.7500,351.2500,6.5625,1.6875
58218,1.0300,-0.2800,9.3400,0.0011,-0.0044,0.0022,27.8750,2.5625,-36.1875,351.2500,6.5625,1.6875
58280,1.0300,-0.2700,9.3600,-0.0011,-0.0011,0.0011,27.1875,2.1875,-35.0625,351.2500,6.5625,1.6875
58345,1.0500,-0.2500,9.3700,0.0000,-0.0011,-0.0011,25.6875,2.1875,-35.7500,351.2500,6.5625,1.6875
58408,1.0500,-0.2700,9.3600,-0.0033,0.0000,-0.0011,26.3750,1.8750,-37.0000,351.2500,6.5625,1.6875
58471,1.0500,-0.2800,9.3500,-0.0011,0.0011,-0.0033,26.0625,3.0000,-36.5625,351.2500,6.5625,1.6875
58532,1.0500,-0.2800,9.3500,-0.0011,-0.0044,-0.0011,26.7500,2.5625,-35.7500,351.2500,6.5625,1.6875
58598,1.0400,-0.2800,9.3600,0.0022,-0.0033,0.0000,25.6875,2.1875,-37.0000,351.2500,6.5625,1.6875
58660,1.0400,-0.2700,9.3800,0.0000,-0.0011,-0.0011,27.1875,2.5625,-36.1875,351.2500,6.5625,1.6875
58724,1.0300,-0.2700,9.3400,0.0000,-0.0011,-0.0011,26.7500,2.1875,-36.5625,351.2500,6.5625,1.6875
58787,1.0500,-0.2600,9.3500,-0.0011,0.0022,0.0000,26.3750,2.1875,-36.5625,351.2500,6.5625,1.6875
58849,1.0400,-0.2600,9.3800,0.0022,-0.0011,-0.0011,26.7500,1.8750,-34.6875,351.2500,6.5625,1.6875
58914,1.0600,-0.2800,9.3400,0.0000,-0.0022,0.0033,26.3750,1.8750,-35.7500,351.2500,6.5625,1.6875
58978,1.0400,-0.2500,9.3400,-0.0011,0.0000,-0.0022,25.6875,2.5625,-36.1875,351.2500,6.5625,1.6875
59040,1.0200,-0.2700,9.3500,0.0000,0.0000,-0.0011,26.7500,2.1875,-35.7500,351.2500,6.5625,1.6875
59104,1.0300,-0.2600,9.3600,-0.0022,-0.0011,0.0011,26.7500,1.8750,-35.3750,351.2500,6.5625,1.6875
59169,1.0400,-0.2800,9.3400,0.0022,-0.0022,-0.0011,26.0625,2.1875,-35.0625,351.2500,6.5625,1.6875
59230,1.0400,-0.2700,9.3500,0.0011,0.0000,-0.0011,27.5625,1.8750,-36.5625,351.2500,6.5625,1.6875
59295,1.0400,-0.2800,9.3500,0.0011,-0.0022,-0.0011,26.7500,2.5625,-35.0625,351.2500,6.5625,1.6875
59359,1.0300,-0.2700,9.3500,-0.0011,0.0022,0.0011,26.3750,2.1875,-36.5625,351.2500,6.5625,1.6875
59422,1.0500,-0.2700,9.3800,-0.0011,0.0022,0.0011,26.3750,3.0000,-36.1875,351.2500,6.5625,1.6875
59484,1.0300,-0.2700,9.3400,0.0011,0.0011,-0.0011,26.3750,1.8750,-35.8750,351.2500,6.5625,1.6875
59549,1.0300,-0.2800,9.3800,0.0022,-0.0011,-0.0065,27.1875,2.5625,-36.5625,351.2500,6.5625,1.6875
59611,1.0400,-0.3000,9.3300,0.0011,-0.0033,0.0000,26.7500,3.0000,-36.1875,351.2500,6.5625,1.6875
59675,1.0400,-0.2800,9.3500,0.0000,-0.0033,0.0000,26.0625,3.0000,-35.0625,351.2500,6.5625,1.6875
59738,1.0500,-0.2700,9.3500,0.0011,-0.0033,0.0000,26.7500,2.5625,-35.7500,351.2500,6.5625,1.6875
59801,1.0500,-0.2700,9.3500,0.0011,0.0011,0.0000,27.5625,2.1875,-36.5625,351.2500,6.5625,1.6875
59865,1.0400,-0.2800,9.3500,0.0022,-0.0011,0.0000,26.0625,3.0000,-36.1875,351.2500,6.5625,1.6875
59930,1.0300,-0.2500,9.3400,0.0000,-0.0044,-0.0022,26.0625,2.1875,-37.3750,351.2500,6.5625,1.6875
59991,1.0300,-0.2800,9.3300,-0.0022,0.0033,-0.0022,26.3750,2.5625,-36.5625,351.2500,6.5625,1.6875
60056,1.0400,-0.2300,9.2200,0.0044,-0.0022,0.0000,26.7500,1.8750,-36.1875,351.2500,6.5625,1.6875
60120,1.0500,-0.2800,9.4100,-0.0033,0.0087,0.0076,26.0625,3.0000,-35.8750,351.2500,6.5000,1.6875
60182,1.0100,-0.2800,9.3600,0.0153,0.0000,-0.0022,26.7500,2.5625,-36.5625,351.2500,6.5000,1.6875
60246,1.0700,-0.2800,9.3200,-0.0076,0.0033,0.0011,26.7500,1.8750,-36.1875,351.2500,6.5000,1.6875
60311,1.0200,-0.3000,9.3700,-0.0033,-0.0033,-0.0022,26.3750,3.0000,-36.1875,351.2500,6.5000,1.6875
60372,1.0600,-0.2800,9.3300,0.0022,-0.0044,0.0011,27.1875,2.5625,-35.8750,351.2500,6.5000,1.6875
60435,1.0500,-0.2800,9.3400,0.0022,0.0022,0.0011,27.1875,1.8750,-35.5000,351.2500,6.5000,1.6875
60499,1.0300,-0.2600,9.3600,0.0087,-0.0044,0.0022,26.0625,1.8750,-36.1875,351.2500,6.5000,1.6875
60563,1.0900,-0.4500,9.4700,0.0044,0.0044,0.0011,26.3750,3.2500,-36.5625,351.2500,6.5000,1.7500
60626,1.0300,-0.2900,9.3300,-0.0022,0.0044,-0.0011,26.7500,2.1875,-37.0000,351.2500,6.5000,1.6875
60690,1.0300,-0.2800,9.3500,0.0142,0.0011,0.0000,26.3750,2.5625,-36.5625,351.2500,6.5000,1.6875
60752,1.0700,-0.2700,9.3600,0.0033,-0.0011,0.0000,26.7500,3.0000,-35.7500,351.2500,6.5000,1.6875
60817,1.0300,-0.2800,9.3400,-0.0087,0.0044,-0.0022,27.1875,2.1875,-35.0625,351.2500,6.5000,1.6875
60881,1.0300,-0.2700,9.3500,0.0033,-0.0011,0.0000,26.0625,3.0000,-36.1875,351.2500,6.5000,1.6875
60943,1.0300,-0.2800,9.3600,-0.0022,0.0011,0.0000,26.0625,1.8750,-36.5625,351.2500,6.5000,1.6875
61007,1.0300,-0.2900,9.3500,0.0022,-0.0011,0.0011,25.3750,2.5625,-36.5625,351.2500,6.5000,1.6875
61072,1.0300,-0.2700,9.3300,0.0011,0.0022,0.0011,26.3750,2.5625,-35.8750,351.2500,6.5000,1.6875
61133,1.0300,-0.2900,9.3500,-0.0011,-0.0011,-0.0033,26.0625,2.5625,-36.5625,351.2500,6.5000,1.6875
61197,1.0400,-0.2700,9.3600,-0.0033,0.0011,0.0011,26.7500,3.2500,-35.5000,351.2500,6.5000,1.6875
61261,1.0400,-0.2700,9.3600,0.0033,-0.0011,-0.0022,25.6875,3.0000,-36.5625,351.2500,6.5000,1.6875
61323,1.0400,-0.3000,9.3300,0.0011,0.0000,-0.0022,25.6875,3.0000,-35.8750,351.2500,6.5000,1.6875
61386,1.0300,-0.2700,9.3500,0.0011,0.0011,0.0011,26.3750,2.1875,-36.5625,351.2500,6.5000,1.6875
61450,1.0200,-0.2800,9.3300,-0.0022,-0.0011,0.0000,26.0625,3.0000,-35.5000,351.2500,6.5000,1.6875
61513,1.0300,-0.2600,9.3500,0.0011,0.0011,-0.0022,26.3750,3.0000,-36.6875,351.2500,6.5000,1.6875
61577,1.0100,-0.2700,9.3600,0.0000,0.0044,-0.0022,26.0625,3.0000,-36.1875,351.2500,6.5000,1.6875
61641,1.0200,-0.2700,9.3500,0.0033,-0.0011,0.0011,26.7500,2.1875,-35.8750,351.2500,6.5000,1.6875
61703,1.0200,-0.2700,9.3200,-0.0011,-0.0011,-0.0011,27.1875,3.0000,-37.0000,351.2500,6.5000,1.6875
61768,1.0400,-0.3100,9.3300,0.0022,-0.0033,0.0000,27.1875,2.5625,-36.1875,351.2500,6.5000,1.6875
61832,1.0300,-0.2600,9.3500,-0.0022,-0.0022,0.0011,26.3750,3.2500,-36.1875,351.2500,6.5000,1.6875
61894,1.0200,-0.2600,9.3500,0.0000,0.0022,0.0000,27.1875,1.8750,-37.0000,351.2500,6.5000,1.6875
61958,1.0400,-0.2800,9.3400,0.0011,0.0000,0.0022,27.1875,3.0000,-37.0625,351.2500,6.5000,1.6875
62022,1.0300,-0.2900,9.3500,-0.0011,0.0022,-0.0011,26.3750,3.0000,-36.1875,351.2500,6.5000,1.6875
62084,1.0400,-0.2500,9.3500,0.0022,0.0022,-0.0022,27.1875,3.2500,-35.3750,351.2500,6.5000,1.6875
62149,1.0500,-0.2700,9.3600,-0.0044,0.0011,0.0000,27.5625,3.0000,-36.5625,351.2500,6.5000,1.6875
62212,1.0400,-0.2500,9.3600,0.0044,0.0044,-0.0022,27.1875,2.5625,-35.8750,351.2500,6.5000,1.6875
62275,1.0400,-0.2600,9.3200,0.0033,0.0022,-0.0011,26.7500,3.0000,-35.7500,351.2500,6.5000,1.6875
62336,1.0400,-0.2800,9.3600,-0.0033,0.0033,-0.0022,26.7500,3.0000,-35.8750,351.2500,6.5000,1.6875
62402,1.0500,-0.2700,9.3600,0.0011,-0.0044,-0.0022,27.1875,2.5625,-36.1875,351.2500,6.5000,1.6875
62464,1.0400,-0.2700,9.3500,0.0033,-0.0044,-0.0011,27.5625,3.0000,-36.5625,351.2500,6.5000,1.6875
62529,1.0400,-0.2500,9.3500,0.0022,0.0011,-0.0022,26.3750,3.2500,-37.0000,351.2500,6.5000,1.6875
62592,1.0400,-0.2700,9.3700,0.0011,0.0011,0.0011,26.3750,3.2500,-35.8750,351.2500,6.5000,1.6875
62655,1.0600,-0.2800,9.3400,-0.0011,-0.0022,0.0022,26.7500,3.2500,-35.5000,351.2500,6.5000,1.6875
62718,1.0600,-0.2800,9.3400,-0.0044,-0.0033,0.0000,27.8750,2.5625,-37.7500,351.2500,6.5000,1.6875
62783,1.0400,-0.2700,9.3500,0.0022,0.0022,0.0022,26.7500,3.0000,-36.1875,351.2500,6.5000,1.6875
62845,1.0400,-0.2900,9.3500,0.0044,0.0011,0.0022,27.5625,2.1875,-35.0625,351.2500,6.5000,1.6875
62910,1.0400,-0.2800,9.3400,-0.0011,0.0044,0.0011,26.3750,3.2500,-36.1875,351.2500,6.5000,1.6875
62973,1.0200,-0.2500,9.3500,0.0022,-0.0011,0.0033,26.3750,2.5625,-35.7500,351.2500,6.5000,1.6875
63036,1.0200,-0.2600,9.3700,0.0033,-0.0055,0.0033,26.7500,3.2500,-37.0000,351.2500,6.5000,1.6875
63100,1.0300,-0.3000,9.3500,-0.0076,0.0044,0.0011,26.3750,3.0000,-35.3750,351.2500,6.5000,1.6875
63164,1.0400,-0.2800,9.3700,-0.0033,-0.0011,0.0000,27.5625,3.2500,-35.7500,351.2500,6.5000,1.6875
63226,1.0300,-0.2500,9.3500,0.0044,-0.0033,0.0022,26.0625,3.0000,-36.1875,351.2500,6.5000,1.6875
63287,1.0400,-0.2800,9.3700,0.0022,-0.0022,0.0044,27.5625,2.5625,-36.1875,351.2500,6.5000,1.6875
63353,1.0200,-0.2800,9.3600,-0.0011,0.0000,0.0022,27.1875,3.0000,-35.8750,351.2500,6.5000,1.6875
63415,1.0200,-0.2500,9.3600,-0.0055,0.0033,-0.0022,26.7500,3.0000,-37.0000,351.2500,6.5000,1.6875
63479,1.0400,-0.3000,9.3700,0.0022,0.0000,0.0000,27.5625,1.5000,-36.1875,351.2500,6.5000,1.6875
63542,1.0400,-0.2700,9.3400,-0.0011,0.0033,-0.0011,27.1875,3.0000,-36.5625,351.2500,6.5000,1.6875
63606,1.0400,-0.3000,9.3400,-0.0011,-0.0011,0.0011,27.1875,2.5625,-37.0000,351.2500,6.5000,1.6875
63669,1.0400,-0.2700,9.3500,0.0011,-0.0033,0.0000,27.5625,3.6875,-36.1875,351.2500,6.5000,1.6875
63734,1.0300,-0.2800,9.3500,0.0000,0.0022,0.0000,26.0625,3.0000,-36.1875,351.2500,6.5000,1.6875
63796,1.0400,-0.2800,9.3800,-0.0033,0.0011,-0.0011,27.1875,3.0000,-36.1875,351.2500,6.5000,1.6875
63860,1.0400,-0.2800,9.3300,-0.0033,-0.0033,-0.0011,26.0625,2.5625,-36.1875,351.2500,6.5000,1.6875
63924,1.0300,-0.2700,9.3400,0.0011,0.0000,0.0000,26.7500,2.5625,-37.0625,351.2500,6.5000,1.6875
63987,1.0500,-0.2500,9.3400,0.0044,0.0000,-0.0033,26.3750,3.0000,-35.7500,351.2500,6.5000,1.6875
64051,1.0400,-0.2500,9.3600,0.0033,-0.0011,0.0011,27.5625,2.5625,-36.5625,351.2500,6.5000,1.6875
64115,1.0700,-0.2700,9.3700,0.0000,-0.0044,-0.0011,26.7500,2.5625,-37.0000,351.2500,6.5000,1.6875
64177,1.0600,-0.2800,9.3800,0.0000,-0.0022,0.0000,26.7500,3.2500,-36.1875,351.2500,6.5000,1.6875
64239,1.0500,-0.2500,9.3400,-0.0011,-0.0011,0.0000,26.0625,3.2500,-36.1875,351.2500,6.5000,1.6875
64304,1.0400,-0.2600,9.3500,-0.0011,-0.0022,0.0011,26.3750,3.0000,-35.5000,351.2500,6.5000,1.6875
64367,1.0300,-0.2800,9.3500,0.0011,-0.0011,0.0011,26.7500,3.0000,-35.3750,351.2500,6.5000,1.6875
64430,1.0400,-0.2800,9.3500,0.0000,0.0000,0.0000,27.5625,3.0000,-35.0625,351.2500,6.5000,1.6875
64494,1.0400,-0.2700,9.3400,0.0000,0.0022,0.0044,26.7500,3.2500,-35.8750,351.2500,6.5000,1.6875
64556,1.0400,-0.2600,9.3700,-0.0022,0.0022,0.0033,27.8750,3.6875,-35.8750,351.2500,6.5000,1.6875
64620,1.0200,-0.2700,9.3600,-0.0011,0.0022,-0.0033,27.5625,2.1875,-36.5625,351.2500,6.5000,1.6875
64685,1.0400,-0.2700,9.3600,-0.0033,0.0011,-0.0033,27.1875,3.2500,-36.1875,351.2500,6.5000,1.6875
64748,1.0200,-0.2900,9.3400,0.0011,-0.0044,0.0000,27.5625,3.6875,-36.5625,351.2500,6.5000,1.6875
64811,1.0400,-0.2600,9.3400,-0.0044,0.0000,-0.0011,26.3750,3.0000,-35.3750,351.2500,6.5000,1.6875
64876,1.0400,-0.2800,9.3500,-0.0033,0.0011,-0.0022,26.3750,3.2500,-35.5000,351.2500,6.5000,1.6875
64938,1.0500,-0.2800,9.3700,0.0000,-0.0022,0.0000,27.5625,2.5625,-36.1875,351.2500,6.5000,1.6875
65002,1.0500,-0.2800,9.3500,0.0033,-0.0011,-0.0011,26.7500,2.5625,-35.5000,351.2500,6.5000,1.6875
65066,1.0300,-0.2600,9.3700,0.0022,0.0011,0.0000,27.1875,3.2500,-37.7500,351.2500,6.5000,1.6875
65129,1.0300,-0.2800,9.3500,0.0000,0.0000,-0.0011,27.1875,3.0000,-35.8750,351.2500,6.5000,1.6875
65190,1.0400,-0.2800,9.3700,0.0022,0.0000,-0.0011,26.7500,3.2500,-35.7500,351.2500,6.5000,1.6875
65256,1.0300,-0.2800,9.3600,0.0033,-0.0055,0.0022,26.3750,3.0000,-36.1875,351.2500,6.5000,1.6875
65318,1.0300,-0.2500,9.3500,-0.0044,0.0055,0.0087,27.5625,2.5625,-36.5625,351.2500,6.5000,1.6875
65382,1.0300,-0.2600,9.3400,-0.0033,0.0055,-0.0022,26.3750,3.0000,-35.0625,351.2500,6.5000,1.6875
65445,1.0200,-0.3000,9.3700,0.0000,0.0011,0.0000,27.1875,2.5625,-35.3750,351.2500,6.5000,1.6875
65509,1.0100,-0.2600,9.3500,-0.0022,-0.0011,-0.0011,27.8750,2.1875,-35.3750,351.2500,6.5000,1.6875
65572,1.0400,-0.2900,9.3300,0.0022,0.0011,-0.0022,26.3750,2.1875,-35.3750,351.2500,6.5000,1.6875
65637,1.0100,-0.2800,9.3600,0.0033,-0.0033,-0.0011,26.7500,2.1875,-35.3750,351.2500,6.5000,1.6875
65698,1.0500,-0.2800,9.3500,0.0011,-0.0011,-0.0022,26.3750,3.0000,-35.8750,351.2500,6.5000,1.6875
65762,1.0500,-0.2800,9.3300,0.0044,-0.0033,0.0000,26.7500,2.1875,-35.0625,351.2500,6.5000,1.6875
65827,1.0200,-0.2700,9.3300,0.0044,-0.0022,-0.0011,26.3750,3.2500,-35.7500,351.2500,6.5000,1.6875
65888,1.0400,-0.2800,9.3600,0.0011,-0.0076,-0.0011,27.1875,2.5625,-35.3750,351.2500,6.5000,1.6875
65953,1.0300,-0.2800,9.3300,0.0022,-0.0022,0.0011,26.0625,2.1875,-36.1875,351.2500,6.5000,1.6875
66017,1.0200,-0.2700,9.3700,0.0000,-0.0022,0.0000,26.7500,3.2500,-37.3750,351.2500,6.5000,1.6875
66079,1.0200,-0.2800,9.3600,-0.0022,-0.0011,0.0000,26.3750,3.0000,-35.8750,351.2500,6.5000,1.6875
66141,1.0200,-0.2800,9.3500,0.0011,-0.0011,0.0000,26.0625,3.0000,-35.8750,351.2500,6.5000,1.6875
66206,1.0400,-0.2700,9.3700,-0.0011,0.0000,0.0000,27.5625,2.5625,-36.1875,351.2500,6.5000,1.6875
66268,1.0300,-0.2600,9.3500,0.0022,-0.0033,-0.0022,27.1875,3.2500,-37.0000,351.2500,6.5000,1.6875
66333,1.0300,-0.2700,9.3500,0.0000,0.0022,0.0000,25.6875,3.0000,-36.1875,351.2500,6.5000,1.6875
66396,1.0300,-0.2900,9.3600,0.0033,0.0000,-0.0011,26.3750,3.2500,-36.1875,351.2500,6.5000,1.6875
66459,1.0300,-0.2900,9.3600,0.0011,-0.0011,0.0000,27.1875,3.0000,-35.3750,351.2500,6.5000,1.6875
66522,1.0300,-0.2900,9.3600,0.0011,0.0000,0.0000,26.7500,3.0000,-35.5000,351.2500,6.5000,1.6875
66587,1.0300,-0.2800,9.3400,-0.0022,0.0011,0.0011,27.1875,3.2500,-37.3750,351.2500,6.5000,1.6875
66649,1.0400,-0.2500,9.3500,0.0011,0.0011,0.0000,27.1875,3.0000,-35.0625,351.2500,6.5000,1.6875
66714,1.0400,-0.2600,9.3300,-0.0011,0.0011,0.0000,26.7500,4.0000,-35.8750,351.2500,6.5000,1.6875
66777,1.0400,-0.2700,9.3300,0.0011,0.0033,0.0000,26.3750,2.5625,-35.8750,351.2500,6.5000,1.6875
66840,1.0500,-0.2900,9.3500,-0.0011,-0.0011,-0.0011,26.7500,2.5625,-36.1875,351.2500,6.5000,1.6875
66904,1.0200,-0.2600,9.3500,-0.0011,0.0000,-0.0022,27.1875,2.1875,-35.0625,351.2500,6.5000,1.6875
66969,1.0500,-0.2900,9.3700,-0.0044,0.0011,-0.0011,26.3750,2.5625,-35.3750,351.2500,6.5000,1.6875
67030,1.0400,-0.2800,9.3600,-0.0022,0.0022,-0.0011,26.3750,2.1875,-35.8750,351.2500,6.5000,1.6875
67093,1.0400,-0.2800,9.3600,0.0022,-0.0011,0.0000,26.0625,3.0000,-35.8750,351.2500,6.5000,1.6875
67157,1.0300,-0.2900,9.3700,0.0022,0.0022,-0.0011,26.7500,2.1875,-35.3750,351.2500,6.5000,1.6875
67220,1.0500,-0.2700,9.3600,-0.0022,0.0011,0.0022,26.7500,3.2500,-36.5625,351.2500,6.5000,1.6875
67284,1.0400,-0.2800,9.3400,0.0022,0.0000,0.0011,27.1875,2.5625,-35.3750,351.2500,6.5000,1.6875
67348,1.0700,-0.2800,9.3600,0.0011,0.0055,-0.0022,26.7500,2.5625,-36.1875,351.2500,6.5000,1.6875
67410,1.0300,-0.2700,9.3700,0.0000,0.0022,0.0000,26.7500,3.2500,-34.6875,351.2500,6.5000,1.6875
67474,1.0500,-0.2700,9.3400,0.0011,-0.0011,0.0000,26.3750,2.1875,-37.0000,351.2500,6.5000,1.6875
67538,1.0300,-0.2900,9.3500,0.0011,0.0033,0.0011,26.3750,3.2500,-36.1875,351.2500,6.5000,1.6875
67601,1.0300,-0.2800,9.3600,0.0000,-0.0055,0.0022,27.1875,3.0000,-36.5625,351.2500,6.5000,1.6875
67665,1.0300,-0.2900,9.3400,0.0000,-0.0022,0.0011,26.7500,3.0000,-35.3750,351.2500,6.5000,1.6875
67729,1.0400,-0.2600,9.3200,-0.0011,-0.0011,0.0000,26.0625,2.5625,-35.7500,351.2500,6.5000,1.6875
67791,1.0300,-0.2600,9.3400,0.0011,-0.0033,0.0011,27.1875,2.1875,-36.5625,351.2500,6.5000,1.6875
67856,1.0400,-0.2700,9.3700,-0.0011,-0.0011,0.0033,26.7500,3.0000,-36.1875,351.2500,6.5000,1.6875
67919,1.0400,-0.2800,9.3500,0.0000,-0.0055,0.0000,26.0625,1.8750,-36.5625,351.2500,6.5000,1.6875
67981,1.0400,-0.2800,9.3500,0.0000,0.0011,-0.0011,27.1875,3.0000,-37.0000,351.2500,6.5000,1.6875
68044,1.0300,-0.2700,9.3600,0.0011,-0.0011,0.0011,26.7500,3.0000,-36.1875,351.2500,6.5000,1.6875
68108,1.0300,-0.2900,9.3700,0.0000,0.0033,0.0000,27.1875,2.5625,-36.5625,351.2500,6.5000,1.6875
68171,1.0200,-0.2800,9.3400,-0.0011,0.0000,0.0000,27.5625,2.1875,-36.1875,351.2500,6.5000,1.6875
68235,1.0400,-0.2800,9.3400,0.0000,0.0000,0.0000,27.1875,3.2500,-36.5625,351.2500,6.5000,1.6875
68299,1.0300,-0.2900,9.3400,0.0011,0.0044,0.0000,27.1875,2.1875,-35.8750,351.2500,6.5000,1.6875
68361,1.0300,-0.2900,9.3500,0.0000,0.0011,0.0011,26.3750,2.1875,-35.0625,351.2500,6.5000,1.6875
68425,1.0300,-0.2600,9.3300,0.0000,0.0011,0.0000,27.1875,2.5625,-35.8750,351.2500,6.5000,1.6875
68489,1.0200,-0.2700,9.3500,0.0011,0.0022,0.0000,26.7500,3.0000,-36.5625,351.2500,6.5000,1.6875
68552,1.0400,-0.2700,9.3500,-0.0011,0.0022,0.0011,27.1875,2.5625,-35.8750,351.2500,6.5000,1.6875
68616,1.0300,-0.2700,9.3500,-0.0022,0.0011,0.0000,27.1875,2.5625,-37.0000,351.2500,6.5000,1.6875
68680,1.0200,-0.2800,9.3700,0.0000,0.0022,0.0022,27.1875,2.1875,-36.1875,351.2500,6.5000,1.6875
68742,1.0400,-0.2700,9.3600,-0.0011,0.0022,-0.0011,27.1875,1.5000,-35.3750,351.2500,6.5000,1.6875
68807,1.0400,-0.2800,9.3600,-0.0011,-0.0011,-0.0011,27.5625,2.1875,-35.3750,351.2500,6.5000,1.6875
68870,1.0200,-0.2600,9.3400,-0.0022,0.0011,0.0011,26.7500,2.1875,-37.3750,351.2500,6.5000,1.6875
68933,1.0200,-0.2900,9.3700,0.0065,-0.0055,0.0011,27.8750,1.8750,-37.7500,351.2500,6.5000,1.6875
68995,1.0300,-0.2500,9.3500,-0.0033,0.0033,0.0076,27.1875,3.2500,-36.1875,351.2500,6.5000,1.6875
69060,1.0200,-0.2800,9.3500,-0.0044,0.0055,0.0076,26.7500,2.5625,-36.5625,351.2500,6.5000,1.6875
69122,1.0200,-0.2200,9.3200,-0.0033,0.0033,0.0065,27.5625,2.5625,-36.5625,351.2500,6.5000,1.6875
69186,1.0200,-0.2600,9.3400,-0.0120,0.0055,-0.0131,27.5625,2.1875,-37.0000,351.2500,6.5000,1.6875
69250,1.0500,-0.3500,9.4000,0.0131,-0.0120,-0.0196,26.7500,3.2500,-35.3750,351.3125,6.5000,1.6875
69313,1.0200,-0.2500,9.3500,0.0076,-0.0011,-0.0055,27.1875,2.5625,-35.0625,351.3125,6.5000,1.6875
69376,1.0200,-0.2900,9.3400,-0.0011,-0.0022,-0.0055,26.0625,2.1875,-35.7500,351.3125,6.5000,1.6875
69441,1.0600,-0.2800,9.3700,-0.0065,-0.0033,-0.0033,26.7500,3.0000,-37.3750,351.3125,6.5000,1.6875
69503,1.0200,-0.2800,9.3500,0.0000,-0.0076,-0.0022,26.7500,3.0000,-36.1875,351.3125,6.5000,1.6875
69567,1.0200,-0.2900,9.3700,0.0033,0.0000,-0.0044,27.1875,3.0000,-35.7500,351.3125,6.5000,1.6875
69631,1.0300,-0.2900,9.3500,0.0022,-0.0044,-0.0044,27.1875,3.2500,-35.0625,351.3125,6.5000,1.6875
69694,1.0300,-0.2900,9.3700,-0.0033,-0.0011,-0.0044,27.8750,1.8750,-36.1875,351.3125,6.5000,1.6875
69758,1.0200,-0.2700,9.3700,0.0000,-0.0011,-0.0033,27.1875,3.0000,-36.1875,351.3125,6.5000,1.6875
69822,1.0200,-0.2800,9.3700,0.0011,-0.0011,-0.0055,26.3750,1.5000,-35.8750,351.3125,6.5000,1.6875
69884,1.0200,-0.2800,9.3500,0.0055,-0.0044,0.0000,27.1875,2.5625,-35.0625,351.3125,6.5000,1.6875
69947,1.0500,-0.2700,9.3400,-0.0087,0.0065,0.0044,26.7500,3.0000,-35.7500,351.3125,6.5000,1.6875
70011,0.9800,-0.1600,9.3300,0.0022,0.0033,0.0087,26.3750,1.8750,-35.7500,351.3125,6.5000,1.6875
70074,1.0800,-0.3800,9.3900,0.0076,-0.0196,-0.0295,26.7500,2.5625,-35.7500,351.3750,6.5625,1.6875
70137,1.0300,-0.2000,9.3000,0.0033,-0.0044,0.0022,26.3750,2.5000,-35.2500,351.3750,6.5625,1.6875
70201,1.0200,-0.3300,9.3600,-0.0087,0.0022,-0.0022,26.0625,2.5000,-35.0000,351.3750,6.5625,1.6875
70263,1.0100,-0.2400,9.3700,0.0109,-0.0055,-0.0022,26.3750,2.0625,-35.0000,351.3750,6.5625,1.6250
70327,1.0300,-0.2900,9.3500,-0.0022,0.0044,-0.0033,26.0625,2.5000,-35.6875,351.3750,6.5625,1.6250
70392,1.0300,-0.2800,9.3600,0.0011,-0.0033,-0.0033,25.3750,1.7500,-36.0625,351.3750,6.5625,1.6250
70454,1.0300,-0.2900,9.3500,-0.0055,0.0044,-0.0065,27.1875,2.8750,-36.0625,351.3750,6.5625,1.6250
70518,1.0300,-0.2700,9.3600,0.0044,-0.0055,-0.0022,26.0625,2.5000,-35.3750,351.3750,6.5625,1.6250
70582,1.0300,-0.2800,9.3100,0.0011,0.0033,-0.0065,26.3750,2.5000,-36.0625,351.3750,6.5625,1.6250
70644,1.0500,-0.2800,9.3400,0.0022,0.0000,-0.0033,26.0625,2.5000,-36.8750,351.3750,6.5625,1.6250
70708,1.0200,-0.2800,9.3700,0.0011,0.0000,-0.0055,26.7500,2.8750,-36.0625,351.3750,6.5625,1.6250
70773,1.0400,-0.2600,9.3300,-0.0022,-0.0044,-0.0044,26.3750,2.5000,-36.0625,351.3750,6.5625,1.6250
70834,1.0300,-0.2600,9.3600,-0.0011,-0.0033,-0.0044,27.1875,2.8750,-37.2500,351.3750,6.5625,1.6250
70897,1.0300,-0.2600,9.3600,0.0022,0.0000,-0.0044,26.7500,2.5000,-35.6875,351.3750,6.5625,1.6250
70961,1.0300,-0.2500,9.3700,0.0022,-0.0033,-0.0022,26.7500,2.8750,-35.2500,351.3750,6.5625,1.6250
71025,1.0400,-0.2700,9.3600,0.0011,0.0033,-0.0011,26.3750,2.0625,-36.0625,351.3750,6.5625,1.6250
71088,1.0200,-0.2500,9.3500,0.0000,0.0000,-0.0022,27.1875,2.8750,-36.0625,351.3750,6.5625,1.6250
71152,1.0500,-0.2700,9.3600,0.0000,-0.0011,-0.0011,27.1875,3.1875,-36.5000,351.3750,6.5625,1.6250
71214,1.0300,-0.2700,9.3600,0.0022,0.0000,-0.0011,26.3750,2.5000,-35.2500,351.3750,6.5625,1.6250
71279,1.0200,-0.2900,9.3700,0.0011,0.0044,-0.0033,26.3750,2.8750,-35.2500,351.3750,6.5625,1.6250
71343,1.0300,-0.2600,9.3600,0.0011,0.0011,-0.0011,27.1875,2.5000,-35.2500,351.3750,6.5625,1.6250
71405,1.0300,-0.2900,9.3700,-0.0011,0.0022,0.0000,26.3750,2.5000,-35.6875,351.3750,6.5625,1.6250
71469,1.0200,-0.2900,9.3500,0.0000,-0.0011,-0.0011,27.5625,3.1875,-36.0625,351.3750,6.5625,1.6250
71534,1.0400,-0.3000,9.3300,-0.0022,-0.0011,0.0011,26.3750,2.5000,-35.6875,351.3750,6.5625,1.6250
71595,1.0100,-0.2800,9.3600,0.0044,-0.0011,0.0011,26.7500,1.7500,-35.2500,351.3750,6.5625,1.6250
71660,1.0200,-0.2600,9.3600,0.0000,-0.0011,0.0022,27.1875,1.7500,-35.2500,351.3750,6.5625,1.6250
71724,1.0400,-0.2900,9.3600,-0.0033,-0.0011,0.0022,27.5625,2.5000,-35.6875,351.3750,6.5625,1.6250
71786,1.0300,-0.2600,9.3700,-0.0011,0.0000,0.0000,27.5625,2.0625,-35.0000,351.3750,6.5625,1.6250
71848,1.0500,-0.2700,9.3700,0.0000,0.0055,0.0000,25.3750,2.0625,-35.6875,351.3750,6.5625,1.6250
71913,1.0200,-0.2700,9.3800,0.0011,-0.0011,-0.0011,26.3750,2.5000,-35.2500,351.3750,6.5625,1.6250
71975,1.0500,-0.2800,9.3800,0.0011,-0.0011,-0.0022,27.1875,2.8750,-36.5000,351.3750,6.5625,1.6250
72040,1.0200,-0.2900,9.3600,0.0011,-0.0011,-0.0011,27.5625,2.0625,-35.2500,351.3750,6.5625,1.6250
72103,1.0500,-0.2800,9.3500,-0.0011,0.0000,-0.0011,27.1875,2.0625,-36.5000,351.3750,6.5625,1.6250
72166,1.0400,-0.2800,9.3800,0.0022,-0.0033,0.0022,25.0000,1.7500,-35.6875,351.3750,6.5625,1.6250
72230,1.0200,-0.2800,9.3100,-0.0011,0.0011,0.0033,25.6875,3.5625,-35.2500,351.3750,6.5625,1.6250
72294,1.0400,-0.2800,9.3800,0.0044,-0.0011,-0.0011,27.1875,2.5000,-36.0625,351.3750,6.5625,1.6250
72356,1.0400,-0.2800,9.3500,-0.0022,-0.0022,0.0000,26.3750,2.0625,-36.0625,351.3750,6.5625,1.6250
72421,1.0300,-0.2900,9.3500,-0.0011,-0.0033,-0.0011,27.1875,2.8750,-36.5000,351.3750,6.5625,1.6250
72484,1.0300,-0.2600,9.3300,0.0022,0.0011,-0.0022,26.3750,2.5000,-36.0625,351.3750,6.5625,1.6250
72546,1.0400,-0.2600,9.3600,0.0022,0.0000,0.0000,27.1875,2.5000,-35.6875,351.3750,6.5625,1.6250
72611,1.0500,-0.2900,9.3600,0.0011,0.0000,-0.0011,26.7500,2.5000,-35.6875,351.3750,6.5625,1.6250
72674,1.0400,-0.2700,9.3500,0.0011,-0.0033,-0.0011,27.1875,2.5000,-36.0625,351.3750,6.5625,1.6250
72737,1.0300,-0.2700,9.3300,-0.0022,0.0022,-0.0011,26.3750,2.8750,-36.5000,351.3750,6.5625,1.6250
72799,1.0400,-0.2600,9.3400,0.0011,0.0022,-0.0022,26.3750,2.8750,-36.5000,351.3750,6.5625,1.6250
72864,1.0400,-0.2600,9.3500,0.0011,0.0011,-0.0022,26.3750,2.5000,-35.2500,351.3750,6.5625,1.6250
72926,1.0400,-0.2700,9.3600,0.0000,0.0000,0.0000,26.3750,2.0625,-37.0000,351.3750,6.5625,1.6250
72991,1.0400,-0.2700,9.3400,0.0033,-0.0033,-0.0011,25.6875,3.1875,-36.0625,351.3750,6.5625,1.6250
73054,1.0400,-0.2600,9.3600,-0.0022,0.0011,0.0000,25.6875,2.8750,-35.2500,351.3750,6.5625,1.6250
73117,1.0400,-0.2800,9.3600,0.0022,0.0000,0.0011,27.1875,2.0625,-36.0625,351.3750,6.5625,1.6250
73180,1.0300,-0.2800,9.3300,0.0022,-0.0033,0.0022,27.5625,2.0625,-35.6875,351.3750,6.5625,1.6250
73245,1.0300,-0.2900,9.3600,0.0011,0.0011,-0.0011,25.3750,1.7500,-35.2500,351.3750,6.5625,1.6250
73307,1.0400,-0.2800,9.3700,-0.0011,0.0022,-0.0011,26.0625,2.0625,-35.7500,351.3750,6.5625,1.6250
73372,1.0200,-0.2700,9.3300,0.0011,0.0000,0.0000,25.3750,2.0625,-36.0625,351.3750,6.5625,1.6250
73435,1.0400,-0.2700,9.3300,-0.0011,-0.0011,0.0000,26.3750,2.0625,-35.0000,351.3750,6.5625,1.6250
73498,1.0400,-0.2700,9.3700,-0.0022,0.0022,-0.0011,25.6875,1.7500,-35.0000,351.3750,6.5625,1.6250
73562,1.0200,-0.2700,9.3500,-0.0022,0.0000,0.0011,26.3750,2.0625,-36.0625,351.3750,6.5625,1.6250
73626,1.0300,-0.2800,9.3300,0.0022,0.0033,0.0033,26.7500,2.0625,-35.2500,351.3750,6.5625,1.6250
73688,1.0400,-0.2800,9.3400,0.0033,-0.0022,0.0011,26.3750,2.0625,-36.5000,351.3750,6.5625,1.6250
73751,1.0300,-0.2700,9.3800,-0.0022,0.0000,0.0000,26.7500,2.5000,-36.5000,351.3750,6.5625,1.6250
73815,1.0300,-0.2800,9.3600,0.0000,0.0033,0.0000,26.0625,2.8750,-36.5000,351.3750,6.5625,1.6250
73878,1.0200,-0.2700,9.3600,-0.0011,0.0000,-0.0011,26.3750,1.7500,-36.5000,351.3750,6.5625,1.6250
73941,1.0500,-0.2500,9.3700,-0.0022,0.0022,0.0000,26.7500,2.0625,-36.0625,351.3750,6.5625,1.6250
74005,1.0400,-0.3000,9.3900,0.0044,-0.0011,-0.0011,26.7500,2.5000,-35.0000,351.3750,6.5625,1.6250
74068,1.0400,-0.2600,9.3500,0.0000,0.0011,-0.0011,26.0625,2.5000,-36.0625,351.3750,6.5625,1.6250
74132,1.0400,-0.2900,9.3500,0.0033,-0.0033,0.0000,26.3750,2.0625,-35.6875,351.3750,6.5625,1.6250
74196,1.0200,-0.2800,9.3700,0.0000,-0.0033,0.0000,27.1875,1.7500,-36.0625,351.3750,6.5625,1.6250
74259,1.0400,-0.2900,9.3700,0.0000,-0.0011,-0.0011,26.3750,1.7500,-35.2500,351.3750,6.5625,1.6250
74322,1.0300,-0.2700,9.3500,0.0033,-0.0011,0.0011,26.0625,2.5000,-35.0000,351.3750,6.5625,1.6250
74387,1.0400,-0.3000,9.3400,0.0011,0.0000,-0.0022,26.7500,2.5000,-36.5000,351.3750,6.5625,1.6250
74448,1.0100,-0.2700,9.3800,0.0011,-0.0022,0.0011,27.1875,3.1875,-35.6875,351.3750,6.5625,1.6250
74513,1.0200,-0.3000,9.3400,-0.0011,-0.0011,0.0000,26.3750,2.5000,-36.0625,351.3750,6.5625,1.6250
74577,1.0500,-0.2700,9.3500,0.0011,-0.0011,0.0000,26.0625,2.5000,-35.3750,351.3750,6.5625,1.6250
74640,1.0200,-0.2900,9.3600,-0.0011,0.0022,-0.0011,25.0000,2.5000,-35.6875,351.3750,6.5625,1.6250
74701,1.0400,-0.2700,9.3600,0.0011,-0.0011,0.0022,26.0625,2.5000,-36.0625,351.3750,6.5625,1.6250
74767,1.0300,-0.2800,9.3600,-0.0011,0.0011,0.0011,27.5625,2.8750,-35.6875,351.3750,6.5625,1.6250
74829,1.0400,-0.2900,9.3300,0.0000,-0.0011,0.0000,26.3750,1.7500,-34.5625,351.3750,6.5625,1.6250
74892,1.0200,-0.2800,9.3500,0.0000,0.0011,0.0022,25.3750,2.0625,-35.0000,351.3750,6.5625,1.6250
74956,1.0400,-0.2900,9.3400,-0.0011,0.0022,-0.0011,27.1875,1.7500,-35.6875,351.3750,6.5625,1.6250
75018,1.0300,-0.2900,9.3700,0.0000,0.0011,0.0000,26.7500,1.7500,-35.6875,351.3750,6.5625,1.6250
75083,1.0100,-0.2700,9.3400,-0.0033,0.0022,-0.0011,26.3750,1.7500,-36.0625,351.3750,6.5625,1.6250
75147,1.0200,-0.2700,9.3600,-0.0011,0.0000,0.0000,26.3750,1.7500,-36.0625,351.3750,6.5625,1.6250
75209,1.0300,-0.2600,9.3700,0.0000,0.0044,-0.0011,26.3750,2.8750,-36.0625,351.3750,6.5625,1.6250
75273,1.0500,-0.2700,9.3500,0.0011,0.0000,0.0000,26.0625,2.5000,-36.5000,351.3750,6.5625,1.6250
75338,1.0400,-0.2900,9.3600,-0.0022,0.0011,0.0011,26.3750,2.5000,-35.6875,351.3750,6.5625,1.6250
75399,1.0300,-0.2800,9.3700,0.0000,-0.0022,0.0022,26.0625,1.7500,-35.2500,351.3750,6.5625,1.6250
75464,1.0200,-0.2900,9.3700,-0.0011,0.0033,0.0022,27.1875,1.7500,-35.6875,351.3750,6.5625,1.6250
75527,1.0300,-0.2800,9.3700,0.0011,0.0033,0.0000,26.0625,2.5000,-35.6875,351.3750,6.5625,1.6250
75590,1.0400,-0.2800,9.3500,0.0000,-0.0022,0.0000,26.3750,2.0625,-36.0625,351.3750,6.5625,1.6250
75651,1.0400,-0.2800,9.3400,0.0011,0.0000,0.0022,25.6875,1.0000,-35.6875,351.3750,6.5625,1.6250
75717,1.0300,-0.2700,9.3600,0.0000,-0.0022,-0.0011,26.3750,1.7500,-36.0625,351.3750,6.5625,1.6250
75779,1.0400,-0.2900,9.3500,0.0000,0.0011,0.0011,26.3750,2.5000,-36.0625,351.3750,6.5625,1.6250
75844,1.0300,-0.2800,9.3300,-0.0011,-0.0033,0.0011,26.7500,2.5000,-36.5000,351.3750,6.5625,1.6250
75906,1.0200,-0.2800,9.3600,0.0000,0.0000,0.0000,27.1875,1.7500,-36.0625,351.3750,6.5625,1.6250
75970,1.0500,-0.2800,9.3600,0.0000,0.0011,0.0011,26.3750,1.3750,-35.3750,351.3750,6.5625,1.6250
76033,1.0200,-0.2800,9.3500,-0.0022,-0.0011,0.0044,26.7500,2.0625,-36.5000,351.3750,6.5625,1.6250
76098,1.0200,-0.2700,9.3400,0.0011,-0.0033,0.0011,26.3750,3.1875,-35.6875,351.3750,6.5625,1.6250
76160,1.0300,-0.2700,9.3700,-0.0011,0.0011,0.0011,26.0625,1.3750,-35.7500,351.3750,6.5625,1.6250
76225,1.0200,-0.3100,9.3600,0.0000,0.0000,0.0000,27.1875,2.5000,-35.6875,351.3750,6.5625,1.6250
76288,1.0400,-0.2900,9.3400,-0.0022,0.0011,0.0000,26.7500,1.7500,-35.2500,351.3750,6.5625,1.6250
76351,1.0200,-0.2500,9.3600,-0.0033,-0.0011,0.0022,26.0625,2.0625,-36.0625,351.3750,6.5625,1.6250
76415,1.0300,-0.2800,9.3600,0.0000,-0.0011,0.0000,27.1875,2.8750,-35.7500,351.3750,6.5625,1.6250
76479,1.0300,-0.2900,9.3500,-0.0033,0.0011,-0.0022,27.5625,2.8750,-36.0625,351.3750,6.5625,1.6250
76541,1.0200,-0.2900,9.3500,-0.0022,0.0000,-0.0011,26.7500,2.5000,-36.0625,351.3750,6.5625,1.6250
76604,1.0500,-0.2700,9.3600,0.0000,-0.0022,-0.0011,27.1875,2.5000,-35.0000,351.3750,6.5625,1.6250
76668,1.0300,-0.2800,9.3600,-0.0011,0.0000,-0.0022,26.7500,2.5000,-36.0625,351.3750,6.5625,1.6250
76731,1.0200,-0.2600,9.3600,0.0033,0.0000,0.0000,27.1875,2.0625,-35.0000,351.3750,6.5625,1.6250
76795,1.0300,-0.2600,9.3400,-0.0033,0.0033,-0.0022,27.1875,3.1875,-35.6875,351.3750,6.5625,1.6250
76859,1.0500,-0.2700,9.3700,0.0000,0.0011,0.0000,27.1875,2.0625,-35.2500,351.3750,6.5625,1.6250
76921,1.0400,-0.2900,9.3700,0.0011,-0.0022,-0.0022,27.8750,2.5000,-35.0000,351.3750,6.5625,1.6250
76985,1.0400,-0.2600,9.3500,-0.0011,0.0033,0.0000,26.3750,2.0625,-36.8750,351.3750,6.5625,1.6250
77049,1.0200,-0.2700,9.3400,-0.0033,-0.0044,0.0022,27.1875,2.0625,-35.7500,351.3750,6.5625,1.6250
