timestamp_ns,timestamp_s,gyro_x,gyro_y,gyro_z,accel_x,accel_y,accel_z
0,0.0,0.08057078279212693,0.012029174430039747,0.12517212591244803,0.002846431047363901,-0.29502532836140316,9.87359699147756
5000000,0.005,0.0735059582986288,0.005956275602636704,0.13065436488019622,-0.03509598596306667,-0.5427868204014573,9.537862517046598
10000000,0.01,0.0743418728196162,0.01528248997882531,0.1264790707376741,-0.1482459454302431,-0.2532688317921036,9.61883764732459
15000000,0.015,0.07568552732889951,0.00928470109794799,0.12234352441487079,-0.04365097423022753,-0.5428367507839055,9.59357975529558
20000000,0.02,0.07889729787497365,0.012863038769714771,0.12416031323401487,-0.026525876929374193,-0.5117522399315798,9.827052972674023
25000000,0.025,0.07574578363249908,0.013160351388258008,0.12756512826090333,-0.1448260506708583,-0.2854202690687202,9.624573858455573
30000000,0.03,0.07617676197969867,0.004793293451385046,0.12592913687073695,-0.08407776507317825,-0.03461269744059048,9.410368044225164
35000000,0.035,0.07615943894329662,0.013248195627553534,0.12457211883106781,-0.19527093973912968,-0.3235790144844928,9.910112146583785
40000000,0.04,0.07488255533680842,0.008332303040931119,0.12610848231518101,-0.040982797087841125,-0.21244319769392644,9.781187663356176
45000000,0.045,0.07527465352824084,0.011548160262579132,0.12647354050083967,-0.04837261017020789,-0.25664519305490885,9.508905349978905
50000000,0.05,0.07298305288814542,0.009187175670892245,0.12686054017399104,0.02514142594887317,-0.3714581721104706,9.97848200313127
55000000,0.055,0.07805144605903747,0.007400479152781901,0.12722855415714612,-0.2389102943151977,-0.17260258526920802,9.64990270312643
60000000,0.06,0.07642483477857298,0.011954848848522482,0.12466809592064432,-0.053832990400349265,-0.12575925391909568,9.604793645481081
65000000,0.065,0.07895848599507292,0.008747388582071542,0.12932212325247397,0.17132632924486438,-0.16604456065187354,9.611053363107654
70000000,0.07,0.07642887317004969,0.013502177962517056,0.1266403310813864,-0.12915661872549805,-0.33639955150193723,9.653543446237027
75000000,0.075,0.07694946712357188,0.011050261264450127,0.12421471230279403,-0.007910416265617656,-0.3477637651477202,9.627696578630557
80000000,0.08,0.07573901469254747,0.00811718184236213,0.12762725054397825,-0.06803634378352,-0.3994581640284597,9.803443775877453
85000000,0.085,0.0771527019824987,0.014656110692671266,0.12931886866023803,-0.29506698838447454,-0.3526630832896594,9.851589513368745
90000000,0.09,0.07744223703837744,0.0069767421317718115,0.12529064958349043,-0.21144797375330146,-0.2502569776358846,9.709963812283787
95000000,0.095,0.08152812425292495,0.013425321929741402,0.12090166126901203,-0.20523750867018675,-0.11736233636537856,9.675085819761714
100000000,0.1,0.07408305611480315,0.009878448411902743,0.13162753305060243,-0.21807937074534753,-0.22643694289971447,9.849578627354447
105000000,0.105,0.07664363707964342,0.014011265449996585,0.1240165261480575,0.19220633362587042,-0.06095504279375513,9.563082662373436
110000000,0.11,0.07942624343596479,0.007852485901806028,0.12993160638639922,-0.1455606691678562,-0.38015342973664845,10.008597465804337
115000000,0.115,0.07979663077556559,0.00850681355203212,0.1326783764725609,-0.08363379462537321,-0.2853209725991707,9.787408147801367
120000000,0.12,0.07628051612481412,0.01014252111712272,0.12919304270376852,-0.07397430790211942,-0.2852404836500875,9.74790774325434
125000000,0.125,0.07884476120744208,0.010523980759463224,0.1281991122382985,-0.2328784469911743,-0.2731495443342055,9.88283015382149
130000000,0.13,0.07610756146541466,0.011923714763245823,0.12692900521012254,-0.0008213221714247071,-0.07562341634193749,9.961564833598485
135000000,0.135,0.075115558539482,0.009848520206021144,0.12687206181531122,-0.2617447547673509,-0.3591170017829454,9.940512709351589
140000000,0.14,0.07580181508316018,0.01104759329529441,0.12532745977893056,-0.23812331343093648,-0.22959082593928962,9.834930073987655
145000000,0.145,0.0750137536397872,0.00974035899328173,0.12660888222420483,-0.22491014273357862,-0.211082300741878,9.820297453667502
150000000,0.15,0.07565940625752049,0.012706626098759707,0.1269389081460759,-0.051756931734336195,0.039132476139201317,9.760737033751305
155000000,0.155,0.08117676547883892,0.010479853630744182,0.12428905511903367,0.07810780157162922,-0.03870444064742379,10.080409700676533
160000000,0.16,0.0723990966350494,0.014251944496049026,0.12293092340211403,-0.23639952672908504,-0.14983134045046617,9.824028786077232
165000000,0.165,0.07491243563598322,0.01308899320131825,0.12539284530429748,-0.3732046865663074,0.023632202808322206,9.75928106989339
170000000,0.17,0.07579418547456152,0.01093403104545363,0.13105369125997338,-0.11581569648610529,-0.09185238838402851,9.875898466870611
175000000,0.17500000000000002,0.07208114563684315,0.015087179558132905,0.12966039474684984,0.15667586422858812,0.08686698955520505,9.739859636568566
180000000,0.18,0.06994762983998763,0.013084681618413413,0.12775251015137412,-0.17475719972611986,-0.05664051448723588,9.987342239713282
185000000,0.185,0.07454347942785489,0.016038221951211556,0.12387793623486981,-0.3230484979201681,-0.060137822184891776,9.826490740580182
190000000,0.19,0.07269662157604807,0.014037275225961229,0.1263476001362303,-0.15562991889316943,-0.2980078146283297,9.696121215906288
195000000,0.195,0.07928278183444956,0.012823433244144861,0.12829555962376268,-0.21744547921772428,-0.22975983285970986,9.735309022146815
200000000,0.2,0.0727554330490143,0.010565258869024893,0.1314361066135641,-0.16245413178662785,-0.2802351157215539,9.546827921381759
205000000,0.20500000000000002,0.07206145294943762,0.009808904255559274,0.12928295433438314,-0.13532865345569023,-0.263669856665768,9.98918264759306
210000000,0.21,0.07525678142609718,0.013673339267133745,0.12598613914943724,-0.24018571939042216,-0.20752524870546804,9.689786830414247
215000000,0.215,0.07257016276228989,0.015525004773626713,0.12450161302755251,-0.07925038359767278,-0.27363748751306655,9.787385791599101
220000000,0.22,0.07255254271595488,0.014140607291480332,0.12422480632853157,-0.11525660551187937,-0.2600601762439887,9.863441782546213
225000000,0.225,0.07598027959663771,0.013528482879880187,0.12770572907802594,-0.03573164247977369,-0.2886936206282381,9.847824629640636
230000000,0.23,0.07541513960884481,0.01300809301094555,0.12747298023246814,0.009348244011902707,-0.08974182730660571,9.820416477616494
235000000,0.23500000000000001,0.07430329059267618,0.019036810278847092,0.1275751549493432,0.012166124330955735,-0.18019927321647902,9.484215873912815
240000000,0.24,0.07599164894985289,0.02081397419544658,0.12716115480890613,-0.1263079342321123,-0.010258778550527647,9.563125203387854
245000000,0.245,0.07708687577936654,0.013044985173120235,0.12587985354587441,-0.044088053113169365,-0.23710075359149974,9.782127196671187
250000000,0.25,0.07191330428437356,0.011063215494702301,0.12160869323477053,-0.05636939421310409,-0.24320176047195227,9.894774534391937
255000000,0.255,0.07541234110820728,0.015313333671027262,0.1243999863058518,-0.1257119006888901,-0.26871371365718055,10.117484121309273
260000000,0.26,0.06921405974752491,0.01910317662858771,0.12618511536180507,0.05810700069160857,-0.17860533192502762,9.631443467975426
265000000,0.265,0.07321540433368173,0.01062151639699013,0.12593209285445983,-0.05269061465466168,-0.09270461435405175,9.588763649589653
270000000,0.27,0.08117640074805219,0.015136205064871905,0.12666187480951052,-0.20368014874580684,-0.0013863422213355042,10.032478196145462
275000000,0.275,0.07312451644343627,0.019319173868721937,0.1191194287231029,-0.2540305600400237,-0.173953934858674,9.766129276627574
280000000,0.28,0.07643996548293869,0.01875861191946583,0.1286529161193366,-0.22326999801472033,-0.14592508716603358,9.571490777624316
285000000,0.28500000000000003,0.0727192292326766,0.018537606666503705,0.12354868515559987,-0.34954819619152494,0.010652007560722668,9.736360403504378
290000000,0.29,0.07169482294655205,0.01137157240283181,0.12219776455714469,-0.13249101750198303,-0.2638765565875445,9.900810341709194
295000000,0.295,0.07352696004101258,0.01857220004057855,0.12691816170909412,-0.4749388451260429,0.15619297845152602,9.799769339976203
300000000,0.3,0.07363140662984442,0.016531290050360185,0.12506212771802103,-0.13887403162011455,-0.3223578276764976,9.579048923929609
305000000,0.305,0.07823512873270189,0.018514040526144943,0.12137521425581092,-0.12654952723723684,-0.31805757768031306,9.915031233307024
310000000,0.31,0.07085779413343456,0.011918422775917703,0.12381501793908753,-0.11296145607123456,-0.17668399514724994,9.795691058267705
315000000,0.315,0.08065499124468907,0.015566407673721493,0.12981952170113747,-0.11830455466183969,-0.04469448625444863,9.647645531296345
320000000,0.32,0.07511670281813812,0.011493677612022826,0.12450540188089045,-0.2786159917755737,0.18869797477602235,9.868905508049739
325000000,0.325,0.0756603458302828,0.0173305637600412,0.12635617551897935,-0.16671487592392983,-0.2532380620250221,9.822372607217721
330000000,0.33,0.07332464393821617,0.016213009468662477,0.12920069469384354,-0.15531713699675492,-0.24172458542927228,9.615511400993482
335000000,0.335,0.07265879854199628,0.014982078605344286,0.13063123461951962,-0.25704260657208106,-0.10167162125174772,9.799595668627937
340000000,0.34,0.07963221304681553,0.015296840181273141,0.1252696699583064,-0.15972102793724582,0.07109868916600065,9.779580563108455
345000000,0.34500000000000003,0.07297438537921261,0.017083025065573732,0.13090640125484965,-0.2587802987518728,-0.09135691498738956,9.577604664256954
350000000,0.35000000000000003,0.07383182036711683,0.023462528413538946,0.12470812361602453,-0.20824848977994265,0.047126632985368455,9.60872545595433
355000000,0.355,0.07139316692078045,0.018404992090689368,0.12707651345335758,-0.2932703921154719,0.12305954433507184,9.968173045493163
360000000,0.36,0.07239508093337174,0.014454406654874146,0.12259228851849902,-0.2916811161451585,-0.09672312488726192,9.807491276302667
365000000,0.365,0.07145150583645203,0.01976278666637833,0.12841303532499243,-0.280096674653624,-0.007026841798575004,9.764543030868268
370000000,0.37,0.07668579176273496,0.018741604105033945,0.12600155766034155,-0.12522677484128775,0.12136272030802774,9.882664737665216
375000000,0.375,0.06886991788783192,0.019115021694922317,0.12828942907522475,-0.1584909300977836,-0.0878366630434847,9.770485286666911
380000000,0.38,0.07139334424413926,0.01765038476773939,0.12948992182258856,-0.17722034158242886,0.19408306316493276,9.752716194518353
385000000,0.385,0.07102427379404261,0.022519395442487784,0.12234660959283321,-0.04535583400079027,-0.24120163485149193,9.686924002984775
390000000,0.39,0.07437148724232387,0.01701554035541035,0.13165405431130361,-0.36065509685787767,0.0776103322773707,9.80021664578055
395000000,0.395,0.0722378176551077,0.020553078133881058,0.12738879069945488,-0.2245601045371947,0.015029309026530796,9.73140551573732
400000000,0.4,0.07049480858032905,0.02258416464363226,0.12629432608183425,-0.1290868551153516,0.171767646014355,9.79310487685371
405000000,0.405,0.06786479714065047,0.019738453480631524,0.12861839151792304,-0.10295885182000848,-0.10530182361769397,9.702003444266728
410000000,0.41000000000000003,0.07287107863570924,0.011909824514583982,0.12568450139781662,-0.22425120467430656,-0.17363501008963567,9.977451654046787
415000000,0.41500000000000004,0.07238655349013293,0.015951961357500828,0.12834597309515258,0.028631793799602567,0.08400239304265962,9.683832136082826
420000000,0.42,0.07706404630996776,0.018439153639975246,0.12451607386856184,-0.07903130102226325,-0.07910782533745209,9.95069905427839
425000000,0.425,0.07219693845088625,0.018316148723740794,0.12808098513589827,-0.15538560144289362,-0.08132729737037243,9.760706317474897
430000000,0.43,0.07265918230164829,0.021035590897220312,0.13109482982191298,-0.17470369403635128,0.0945471738811864,9.69559243568717
435000000,0.435,0.07018961761655758,0.019291140114064118,0.12771574982715903,-0.2574191816349104,0.13115851848712576,9.855925221239378
440000000,0.44,0.0751426108782816,0.013348222393827977,0.12527929134502638,-0.23850698286930444,0.1752458850382813,9.84033690119442
445000000,0.445,0.07464491497549376,0.01696935624549243,0.12188800487756583,-0.3029049866058893,0.06159516867027266,9.756551907578059
450000000,0.45,0.0746745521134106,0.019139140560285994,0.12554389594187182,-0.2879247818775761,-0.03361675329607193,9.71745046295074
455000000,0.455,0.07428531760285698,0.01954115301641146,0.1290847479968071,-0.13754772035968765,0.026308214629239494,9.866320417772947
460000000,0.46,0.07108612981738024,0.019274136592404272,0.12870794249581397,-0.08559091925966508,-0.1249227718913795,9.849107041383729
465000000,0.465,0.07336452407838259,0.015523700255410834,0.13085200193272556,0.09570845182556259,0.01716208828749584,9.790680679366718
470000000,0.47000000000000003,0.07079893188372322,0.021580964259609543,0.1295806419759943,-0.2550997022506154,0.07499580140285651,9.807470396112157
475000000,0.47500000000000003,0.06831993527315884,0.01487862648207286,0.13071074329602003,-0.28996210347315887,0.22625264811900575,9.740574501244131
480000000,0.48,0.07412838007094326,0.018130084956531102,0.11911482540436519,-0.3400972670835997,-0.15224536106628456,9.993777001755676
485000000,0.485,0.07342944073451398,0.01994120310178941,0.12646221875285585,-0.10696165367360591,0.38306123868611397,9.957123467562406
490000000,0.49,0.07381052372001368,0.014801030496513604,0.12335179665349338,-0.4928408858234167,0.027297469392843412,9.621326466469192
495000000,0.495,0.06663760762712986,0.0205860619383026,0.12607848054892762,-0.1774996445525431,-0.09257087632105154,9.775820642920547
500000000,0.5,0.06908736725936027,0.017562714029555677,0.12215017086964658,-0.23944956683873814,-0.013197417171628076,9.777982232494324
505000000,0.505,0.0686397382158151,0.02560212652072716,0.12274075992545863,-0.36059963511558535,0.1772544003711609,9.718738769584009
510000000,0.51,0.069354374398449,0.01575791102537582,0.12583259354369533,-0.28703652986851547,0.03548471549005306,9.766414094564958
515000000,0.515,0.06921493529545526,0.01685928774581645,0.1242284290114475,-0.02542012014377676,-0.02127268758832604,9.840478850841416
520000000,0.52,0.07426004527942713,0.016405452163647354,0.13077722758020294,-0.2314441863980855,-0.1598689247092342,9.806565856708474
525000000,0.525,0.07040063202436338,0.017367356030116493,0.12394762906137682,-0.18738087925237906,0.07404336867653981,9.83573163269684
530000000,0.53,0.071185802327788,0.01914733352644464,0.1263871901866895,-0.4226739223776769,0.021702914370695547,9.930840077284131
535000000,0.535,0.07166825123804679,0.027170445332099398,0.12597359018321827,-0.38119438800870203,-0.11863129464231928,9.499370889733726
540000000,0.54,0.07000077779930083,0.018078945640025167,0.12748894945799416,-0.14189639265546783,0.03171568315171453,9.796595618025806
545000000,0.545,0.07045047683271777,0.016603388027165412,0.12293933440284008,-0.12014078324522759,0.14303652070617212,9.755016567957444
550000000,0.55,0.06768967192473377,0.020003386617931607,0.12251053304494407,-0.26752604194053026,0.15397832877244694,9.748354737377355
555000000,0.555,0.06917375252686458,0.02099062971436226,0.12636649715047418,-0.30755434276500465,0.2930325654084136,9.779082273163388
560000000,0.56,0.06688669729333291,0.015509211060800696,0.12742378963911338,-0.14492356382449198,-0.12465230964739532,9.396634661215042
565000000,0.5650000000000001,0.07045890385264786,0.01795077928396088,0.1292553492770745,-0.3582840532778907,0.1438725936364268,9.548420928914465
570000000,0.5700000000000001,0.07420551549284113,0.0202081611400116,0.1239573369335759,-0.34555500958023166,-0.0335306987778875,9.73288039934004
575000000,0.5750000000000001,0.0736499695789756,0.025313833913183228,0.12591961393907705,-0.18880139069320967,0.025713049583587028,10.062164896490401
580000000,0.58,0.07328613202602197,0.019136506064846345,0.12284633024348307,-0.0017793122015749563,0.11716574106397917,9.70517473845344
585000000,0.585,0.07357026872250184,0.022665187620186836,0.12707535626400232,-0.14748110232320222,-0.006059385866598682,9.555509944530565
590000000,0.59,0.0687041016924476,0.018815189660343207,0.12280899762168139,-0.2820890137400746,0.14207546191273487,9.972497679758902
595000000,0.595,0.06918485476678679,0.022085724523750856,0.1250381634058043,-0.32326303025552927,0.06807661533239923,9.79958719827359
600000000,0.6,0.06808420149361197,0.023042115860829705,0.129221610180143,-0.20004300507802797,0.27631368009435203,9.78146369918322
605000000,0.605,0.07314828302223787,0.023384748011734856,0.1253052511363476,-0.26158506190346953,0.48141970668139167,9.835587370156267
610000000,0.61,0.07280509606508355,0.01985287187911868,0.12529445578787302,-0.3795805250225952,0.1998531945833603,9.991535589555575
615000000,0.615,0.07422524884611992,0.02054395268276659,0.12628581635531003,-0.3164044000995021,0.17904613716796958,9.629628937897568
620000000,0.62,0.0736224053293448,0.027444861888138942,0.13145696627261189,-0.5168882452709082,0.301396141086308,9.676846814109272
625000000,0.625,0.07115001760051747,0.02456991770321408,0.12585243794546638,-0.1928354270868164,0.047994350692027246,9.638940248832492
630000000,0.63,0.06620284819051617,0.027208552036997825,0.12903172438087618,-0.40610565691068046,-0.134917105707084,9.742708680871202
635000000,0.635,0.06941686556443567,0.017059181915159587,0.12646741782993998,-0.35918938731557626,0.28615206761436485,10.020687799393475
640000000,0.64,0.0736352134261631,0.02086480746866759,0.12382483529033003,-0.23571224030801569,0.05994254463603049,9.58845639428356
645000000,0.645,0.06821373901686233,0.02329313010958031,0.12808720328818254,-0.20186213662485739,0.311894595025868,9.73952494105921
650000000,0.65,0.06896088929590669,0.023810411917903482,0.12105825852443308,-0.3150409558042131,0.03579614780572778,9.410593791025128
655000000,0.655,0.06661044017624358,0.020156183125267152,0.12601915707998912,-0.2723040004668211,-0.047273563728582074,9.819148066781555
660000000,0.66,0.06557255212475731,0.014281343755466164,0.12666079194049387,-0.254987412589878,0.2456685680564738,9.77790951780588
665000000,0.665,0.06669432559831201,0.020379531474900403,0.1240341833345844,-0.22988478987460356,0.4417036939830029,9.755654133160872
670000000,0.67,0.06792635577988622,0.0317679291773809,0.12621863226356514,-0.27357506959577493,0.11812964713296058,9.711219678326453
675000000,0.675,0.06708670989778726,0.026455980296751575,0.12553918854985432,-0.3050759292326861,-0.046484865181326135,9.882240444675736
680000000,0.68,0.07410077832398539,0.019909745611842125,0.12538855988600575,-0.41392185741925336,0.30568886768009756,9.70466745515027
685000000,0.685,0.06982143370198747,0.0239469269038335,0.12584274300179488,-0.4749655726946836,0.2236717369527683,9.725306156661237
690000000,0.6900000000000001,0.06209447782254213,0.021402568466591484,0.12893379264466295,-0.3026857057434237,0.3525337338842449,9.609216693130726
695000000,0.6950000000000001,0.07257866105778493,0.022305965337260644,0.12868004411735803,-0.20941374520497164,0.2466137443812994,9.717525681741689
700000000,0.7000000000000001,0.06660928750110998,0.0238829730690921,0.12601046573273275,-0.27300491614109557,0.16894208743851177,9.623253956044476
705000000,0.705,0.06928980568761274,0.02391814683198711,0.1261724569046968,-0.2086753622262176,-0.014930187839930109,9.7687000458692
710000000,0.71,0.07088019432594052,0.023165880149273455,0.11900717866292249,-0.2757084985939404,0.14435726500481016,9.845687576043002
715000000,0.715,0.06975091286289815,0.0253426537226512,0.12247767151990514,-0.288485847740639,0.20848281052284529,9.850642574616982
720000000,0.72,0.06983583031763183,0.01912621183155127,0.12211428166094702,-0.2852936491555309,0.44457287042952387,9.718457660345372
725000000,0.725,0.07024253138662465,0.02521118784337533,0.1256017966873907,-0.35380559587458865,0.16380163632558892,9.759716196673468
730000000,0.73,0.07195565643293289,0.02760796885605343,0.1296745644155605,-0.43331004752266344,-0.0681672503977053,9.821860587040877
735000000,0.735,0.06742948787899275,0.028778823740766235,0.1232444705993483,-0.37737937539080896,0.07452546922906418,10.056349527686388
740000000,0.74,0.06296033263098343,0.02622962244747367,0.12520811238968735,-0.43088968511433734,0.19159696746280722,9.688379770896292
745000000,0.745,0.06772863284841063,0.02204838355481505,0.1240417501795007,-0.30103182831067754,0.389434968953261,9.483654122305447
750000000,0.75,0.06779025596535658,0.025709898251051223,0.120441064733541,-0.07908553920045192,0.1943347121016898,9.648421513365175
755000000,0.755,0.06634670743496023,0.02157405772235079,0.1245110327936141,-0.12175824180639455,0.3327665115788099,9.71035915114734
760000000,0.76,0.06885554382187715,0.025121070812672508,0.12754659612748426,-0.32770519998789305,0.2714472809378849,9.59387125476057
765000000,0.765,0.06520858145480685,0.024819066230544917,0.12527130623164393,-0.5150657653166544,0.227339526396079,9.743129691388342
770000000,0.77,0.06949811379146473,0.02275513769454578,0.12872547325472938,-0.2179998098674167,0.2754375004859411,9.656163915595537
775000000,0.775,0.06949577398008522,0.02793386098631766,0.12166913313275755,-0.375849668449709,0.3327070717651908,9.85953512734573
780000000,0.78,0.061720620462666055,0.022562355498972345,0.12745132024527722,-0.40222030517064483,0.3313530038140087,9.932352497672994
785000000,0.785,0.06793421495715438,0.024954387446909036,0.12345509523254258,-0.36414819808760585,0.26373478963382774,9.632300040605292
790000000,0.79,0.06961329018434825,0.02607648946266307,0.1243527452538142,-0.39878157873841297,0.45321694052087363,9.825872303361946
795000000,0.795,0.06110689662490596,0.0235903248204278,0.12239442374800646,-0.5328058871061514,0.2503830653207659,9.991307349070526
800000000,0.8,0.05894948991729564,0.024410858967718076,0.12770287767834768,-0.6456145226209713,0.3389684031291457,9.594342060600368
805000000,0.805,0.0690827919722208,0.025591112059111583,0.1254264716592922,-0.43327062131301186,0.22126203917337542,10.119755369733548
810000000,0.81,0.06090127224023621,0.028977732064427945,0.12195914208110953,-0.28135189396967014,0.18699343213743985,9.79887622154384
815000000,0.8150000000000001,0.06729409407965747,0.027327591972078243,0.12605840395682025,-0.6730526615558889,0.6860371213889718,9.894645142452516
820000000,0.8200000000000001,0.06567100850609993,0.024497936403820413,0.12763165875285382,-0.4003490957333717,0.40564037372169043,9.828992405449396
825000000,0.8250000000000001,0.06767844144002755,0.027150732248098497,0.1226029573566163,-0.5120033063202651,0.053209294615826214,9.65617288443392
830000000,0.8300000000000001,0.06506943400478994,0.02367813125569538,0.12247262540284626,-0.20820262278247803,0.351502986997361,9.79426405535643
835000000,0.835,0.0608863305669937,0.023721447611781188,0.1221712561168424,-0.6458835055959299,0.28449806987733295,9.744470129414427
840000000,0.84,0.06918364129340578,0.022270939082957568,0.11577040778157703,-0.41726472356190236,-0.02604836554697426,9.833924855117042
845000000,0.845,0.06823568997220164,0.03387259519974785,0.12538508695749542,-0.35198149461210204,0.19080800015781607,9.857961660140559
850000000,0.85,0.06513880636161057,0.02613442817068452,0.12331090430425849,-0.4816489029946324,0.2054527215152964,9.669457260702245
855000000,0.855,0.06578190886359407,0.02680205940163238,0.12660817760436033,-0.4782256806838468,0.2233573763824484,9.55300556227666
860000000,0.86,0.06767040741400393,0.029844351452997058,0.12441532191398048,-0.3493905409475511,0.1868747570994853,9.398201970891389
865000000,0.865,0.060756293410499665,0.01994661324052896,0.12257015803364489,-0.3015884752922948,0.442546573052029,9.72314513851348
870000000,0.87,0.06767867148618509,0.026319969069861046,0.12598624123159938,-0.4545267742459411,0.4806806465039025,9.788832872788753
875000000,0.875,0.06209141832801818,0.02843256985670782,0.12312288542641679,-0.33893931849389425,0.1506861559774124,9.619368956284791
880000000,0.88,0.05729060628059166,0.0261794513387782,0.13083823739267564,-0.38811544856520874,0.13948084307648534,9.846899262915427
885000000,0.885,0.06567705964791633,0.026868112314909074,0.12587913877853185,-0.3924773364011924,0.3615523637639499,9.574874381288206
890000000,0.89,0.06482558521622257,0.027595289704231522,0.12330599600963439,-0.38297741090748844,0.5062192396667887,9.566390157092576
895000000,0.895,0.06066931890512932,0.025254140073645796,0.12283705331356212,-0.41374696460247296,0.05773842705192006,9.716507146453973
900000000,0.9,0.06183755314581343,0.0235333897095078,0.12319744081038998,-0.5580450259806048,0.32794193793366755,9.811588774176569
905000000,0.905,0.06975186129744868,0.02720226951220988,0.1232824645692773,-0.4478167481104514,0.3175220476376958,9.622757753245065
910000000,0.91,0.059404672575118236,0.02858248531225878,0.12950635191534063,-0.7170952727320405,0.5158515166407589,9.539239002323281
915000000,0.915,0.0658565731012935,0.023709542978362617,0.12103544375485692,-0.34580018170903626,0.30464358920805196,9.649654853716974
920000000,0.92,0.062387380740390776,0.02821193674305867,0.12246535370365715,-0.45202947066523713,0.30480824792182887,9.563287252629578
925000000,0.925,0.06762763480466902,0.025854160481170098,0.11838069721566448,-0.46015668112469793,0.21628868120556166,9.845109348929213
930000000,0.93,0.062356565405876946,0.029585195483601077,0.12391909054733552,-0.689827291949789,0.43702876254646095,9.568347305337767
935000000,0.935,0.06304201471674424,0.03201038662509619,0.11947359863733713,-0.1842223903240815,0.32849219238218724,9.61226161243461
940000000,0.9400000000000001,0.06679248282416264,0.024797953839357272,0.12546092516557406,-0.289251696659878,0.25716073405651496,9.370839929132815
945000000,0.9450000000000001,0.060116306386869926,0.024847047573064523,0.12541709652769142,-0.4877007373581974,0.3080733114903404,9.788055464282715
950000000,0.9500000000000001,0.06530055654203999,0.027298195465004182,0.12176384797022996,-0.662195322466299,0.22669808597863983,9.907509128162726
955000000,0.9550000000000001,0.06481817733253291,0.02384989841482133,0.12638741632099523,-0.40779933953710956,0.21113162689404086,9.620950018013612
960000000,0.96,0.06196400504872947,0.033269733793551165,0.12402051651927717,-0.13934794061272465,0.7681731296245613,9.823965528153204
965000000,0.965,0.06405836907408645,0.03301930382665215,0.12331144580537633,-0.3046549205708305,0.24399626172008124,9.658968228494913
970000000,0.97,0.06517424169570572,0.030000425389035672,0.12470036538848699,-0.32666747669959983,0.4542902771175131,9.696111391120498
975000000,0.975,0.061193207941747554,0.02602374493533993,0.12520236976115068,-0.32791819840868036,0.3966326226792269,9.807011107224826
980000000,0.98,0.05741481144840487,0.029710584256720355,0.12028614911592145,-0.33179696512253337,0.14679927320326128,9.908589032930644
985000000,0.985,0.06188836053151569,0.027093768189154342,0.12360685650685849,-0.5191674994760329,0.5597747334019091,9.661172185826148
990000000,0.99,0.06319237182439033,0.028597366924699077,0.12320344968109274,-0.4827892527148059,0.15822567662159212,9.678240325986716
995000000,0.995,0.06187394164827743,0.024724647313734926,0.1204587596579088,-0.3077217245395245,0.4950464349699428,9.475358944609535
1000000000,1.0,0.05832366483154961,0.03126155973812258,0.1253166465257675,-0.5374034923986124,0.3765182114554026,9.658877695626801
1005000000,1.0050000000000001,0.06299356419588961,0.025252770981440523,0.12593957474927636,-0.5957947492012736,0.22467067677270286,9.879877801158287
1010000000,1.01,0.0633748042234286,0.026209981817271827,0.1228656222490649,-0.6552733616727335,0.430045580879294,9.816614594552906
1015000000,1.0150000000000001,0.05801137427254419,0.03113421582138638,0.1214641728355263,-0.45903718170275315,0.47703804611447803,9.673690904104761
1020000000,1.02,0.06348391109448834,0.03347925571050494,0.1212004928371785,-0.5530075202019964,0.2654637200614127,9.605659158603956
1024999999,1.025,0.05928382237730828,0.029469151803003853,0.12472813835286184,-0.43313406543495503,0.47102649274462993,9.803168541065595
1030000000,1.03,0.05754401142191714,0.03141087691850755,0.12103628544914866,-0.5567443869397025,0.17357015054073296,9.77769740146743
1034999999,1.035,0.06117862699073603,0.027589418921426558,0.12130852845155507,-0.5249922208412712,0.49330828381561886,9.679753228561962
1040000000,1.04,0.06016783384373974,0.027896769413123284,0.11958757079008205,-0.4884174143180986,0.33504498407034716,9.846000424803359
1044999999,1.045,0.060636207057413294,0.030645015429429826,0.1228531848044262,-0.6417226208905665,0.19045416757082126,9.802135228579672
1050000000,1.05,0.06206461017842917,0.03152219307332607,0.12837956750044127,-0.42755424377944085,0.8025222994971872,9.785705743466334
1054999999,1.055,0.05723827192676744,0.030049294838276418,0.12050804055102445,-0.37546293058866015,0.25328759198083006,9.6744688465116
1060000000,1.06,0.056160731251123336,0.024664478904303178,0.12775908222772359,-0.11252408148857196,0.44730289140534935,9.53843259461257
1065000000,1.065,0.057914040325230474,0.03079147512862748,0.11988690035213659,-0.830155976441576,0.38941108083565085,9.779398398431303
1070000000,1.07,0.0678286246137859,0.027011244723014912,0.12651253459306755,-0.33767009827306205,0.35858144185604135,9.738197292279018
1075000000,1.075,0.05656889614142462,0.02966965238306858,0.12006030472226155,-0.40814995636735524,0.44963168264151715,9.725027559773254
1080000000,1.08,0.06357834053199082,0.028939956147626705,0.11696650840722951,-0.4684903366022055,0.4056523759707483,9.852268511538451
1085000000,1.085,0.061910320393147505,0.027200193509731126,0.121654868160044,-0.5524377921832282,0.37417351107386393,9.646512724545936
1090000000,1.09,0.060187618108965314,0.03449439072803401,0.1233345865120643,-0.5696752749257985,0.41470536813787834,9.796475188023779
1095000000,1.095,0.06464109417345976,0.03362279077436843,0.12266537302074536,-0.5301550816670465,0.3381324956539439,9.773510787271015
1100000000,1.1,0.05866743884924439,0.026702590067738383,0.12212057015789184,-0.21328859896454555,0.3779293146686,9.611451209216344
1105000000,1.105,0.06008355147340332,0.03232893779380717,0.11870158298882155,-0.3986041237177548,0.5573123664380497,9.638033610870881
1110000000,1.11,0.05750799076271059,0.03249653669442611,0.12271261670638052,-0.4069884790178908,0.22102051540631587,9.850779962317146
1115000000,1.115,0.05842791254859238,0.03300592509120963,0.12287241764474303,-0.4247301115681878,0.19588260909072455,9.744074676492875
1120000000,1.12,0.06018487420228517,0.035070189624891036,0.12493303999751984,-0.36881878953018965,0.5066093792606784,9.586558253078707
1125000000,1.125,0.0595303939216993,0.031174921026005397,0.12082854851869591,-0.42280650739395614,0.5770811780848076,10.01466749209938
1130000000,1.1300000000000001,0.057325611299364955,0.03154179544015785,0.12729863922453477,-0.40846283798268096,0.22770169454435893,9.781850298629614
1135000000,1.135,0.06236198954519437,0.03604306107653043,0.1233121853035547,-0.2032896506108423,0.4289177572224593,9.872664577437499
1140000000,1.1400000000000001,0.05888265850736003,0.0329412113418643,0.1145132785326922,-0.5298735579696032,0.47958736253914613,9.94915963248003
1145000000,1.145,0.0584292522238158,0.03016980705653039,0.12216696663338407,-0.42948506836291894,0.4050476875361669,9.977389557384278
1150000000,1.1500000000000001,0.05842166627559214,0.03281764219091978,0.12010230496961559,-0.3967199489204774,0.3229912578828829,9.855501322721485
1155000000,1.155,0.058220163274773515,0.032971710700990364,0.12398348170635812,-0.5124072229908696,0.22051158501647528,9.659184373347356
1160000000,1.16,0.05995548400041967,0.030122731003862303,0.12028847838386787,-0.557960361056004,0.39251951439520727,9.619500345497915
1165000000,1.165,0.05913905442023665,0.028943305687301746,0.1211330297477271,-0.4096712086795272,0.19249164121198814,9.677291322869664
1170000000,1.17,0.06320950355220704,0.0341695854974713,0.12271270674760452,-0.36290772636239244,0.37010221201130344,9.71142956738536
1175000000,1.175,0.06142981331522704,0.031774980847382985,0.12398592210059119,-0.5334545778467318,0.5701279386498026,9.72077735218115
1180000000,1.18,0.06405497906755928,0.031583238180793935,0.12207659245034747,-0.2746486523705996,0.4146123190310254,9.693051311873646
1185000000,1.185,0.05610414413501398,0.03447352589638991,0.11806070889934087,-0.4666602194196367,0.3009586391765001,9.643970311293339
1190000000,1.19,0.05441281999181846,0.034126802747483954,0.12228666542241928,-0.6004940358885298,0.4262798134945869,9.893834244684511
1195000000,1.195,0.05731790438421843,0.029708978602881533,0.11842695954417827,-0.42496189401380285,0.6354222801559535,9.636628916660433
1200000000,1.2,0.055792014904374534,0.036291188083876956,0.11993158086377174,-0.8187559960152831,0.16441707434425035,9.64068119696867
1205000000,1.205,0.056342097192103376,0.03325922356658663,0.12083583651649679,-0.39520524508813804,0.49748875844915813,9.798133414565031
1210000000,1.21,0.05551502994398223,0.03354212808891781,0.11884152155155041,-0.7199797369743837,0.5758780019042985,9.66717476978189
1215000000,1.215,0.056352538828757584,0.032428579012924785,0.12111307696935045,-0.5318898156094711,0.5670141057850498,9.739676190502212
1220000000,1.22,0.059254598455066414,0.03685688007006301,0.11908910886870766,-0.28548778250954554,0.6145296731564249,9.848491166550604
1225000000,1.225,0.05689081634669411,0.024312075520073584,0.1202122335841591,-0.3693598555696641,0.4119010634726694,9.815921687366371
1230000000,1.23,0.059734116493630134,0.029724535609563542,0.11835228158681509,-0.4459220494067901,0.6956966460814213,9.590887636818955
1235000000,1.235,0.050985646139275684,0.03274007628124024,0.11675690759012262,-0.3405429008747919,0.4467111590817914,9.774690102961488
1240000000,1.24,0.05833872095040978,0.03383160523586538,0.11588915652486312,-0.33642229718679206,0.3663132251385044,9.801459062960145
1245000000,1.245,0.05344589979453849,0.033314358643822026,0.12124145641259176,-0.6765838886354469,0.8297699033292402,9.93882551628087
1250000000,1.25,0.057384026927363836,0.028798903723638112,0.12351694453737347,-0.7881575028584376,0.3697304900127021,9.665637172616991
1255000000,1.2550000000000001,0.054604079533149885,0.034815666934132246,0.12379185648659446,-0.7019688067512988,0.29652754726589126,9.641335625008232
1260000000,1.26,0.04871258651628071,0.031472736242205104,0.1216217867314817,-0.7859513940010778,0.4418337305339547,9.750517356471104
1265000000,1.2650000000000001,0.05396166818481525,0.034048048002544636,0.12230190289012771,-0.5715736520098135,0.5235650525529829,9.587195548948635
1270000000,1.27,0.060397106820217934,0.031069940125773642,0.11865049122535457,-0.4645636403257924,0.671464636250243,9.52912370329556
1275000000,1.2750000000000001,0.060323287728767855,0.03362377866288098,0.12079981948817997,-0.48145451985585896,0.4577482848932412,9.709648914847055
1280000000,1.28,0.05589091828549757,0.032946990468513834,0.12349949275726599,-0.49934316343329543,0.7382531166792218,9.618953373713913
1285000000,1.285,0.0499558789818156,0.035876481903518,0.11977685491114452,-0.5558116633477752,0.5539940710512585,9.714384731873233
1290000000,1.29,0.05963197055091295,0.036833648922628026,0.11792096887856199,-0.3837857261971537,0.595316213185086,9.703833223139792
1295000000,1.295,0.0559350003729724,0.03459421683441636,0.1193752382704971,-0.4689685988807999,0.25100885133200995,9.557621236502523
1300000000,1.3,0.049301932384807075,0.037689506268884176,0.12007045695011448,-0.6026752974357594,0.4315189340946249,9.791133205397454
1305000000,1.305,0.05590894256572188,0.03328104202633027,0.12219935404235281,-0.7807130219619706,0.7321580929500365,9.727281831646437
1310000000,1.31,0.05681777458870292,0.033070766997741835,0.11152114708040417,-0.47633436640202304,0.5898767064010109,9.621111068234809
1315000000,1.315,0.05300445491477824,0.0322268848232385,0.11641680448419062,-0.7140597696702559,0.5415161960927479,9.90883173825249
1320000000,1.32,0.051334199624993644,0.03213969048319887,0.11547187825749308,-0.5543049045719803,0.4698465354879435,9.58695339079573
1325000000,1.325,0.0506498165770803,0.03687216436696746,0.12208481613778573,-0.40384323309704373,0.6051303986605538,9.564392994918148
1330000000,1.33,0.05284803335540977,0.035657160653596996,0.1200213093291295,-0.2211226494252861,0.4465588548773447,9.503169589208492
1335000000,1.335,0.057114061159362337,0.031164004356551707,0.12415147808639684,-0.6800785464221744,0.4407999385075946,9.610722999865398
1340000000,1.34,0.057508590808303985,0.036537965657626376,0.12017661981689523,-0.7812458501525088,0.46500644478818715,9.615775783766706
1345000000,1.345,0.049874896321735245,0.03518247082201054,0.12216132694490456,-0.43831004462673157,0.536257439641265,9.660436600722552
1350000000,1.35,0.05460880335414904,0.03264778380999462,0.11989700166140957,-0.5483583759894034,0.9500253024808674,9.483353585730413
1355000000,1.355,0.056580707305753555,0.038858794842158664,0.118512851259616,-0.46135951009690773,0.6966167773301868,9.771093924946051
1360000000,1.36,0.05247783128825004,0.03240117377250919,0.12161635247566288,-0.4591399337171278,0.8240956953669931,9.594645843220967
1365000000,1.365,0.046863541196174655,0.03742304223449292,0.11464361571427803,-0.38932267298819434,0.5711595133400565,9.729890768552407
1370000000,1.37,0.04940088240357004,0.03197626140664178,0.12373788027236932,-0.6451430850214043,0.5140132778879503,9.91901066747386
1375000000,1.375,0.05418202106932861,0.03611377051771131,0.12391399080655821,-0.5100847003415258,0.424712093783679,9.748806289794052
1380000000,1.3800000000000001,0.0557127306150792,0.0417257435382059,0.11942317472758629,-0.26452406582456484,0.4164457314986293,9.666833808460154
1385000000,1.385,0.05498594083767927,0.030864139023362547,0.12330070723185267,-0.4049736334525998,0.6297319240323049,9.717365372910285
1390000000,1.3900000000000001,0.049360245259410115,0.03878807838862688,0.1160101986510383,-0.7558040121630649,0.5440249777823779,9.788588843720783
1395000000,1.395,0.050445520228828984,0.03491285383994552,0.1188964654325688,-0.4681578482951538,0.5482984965889631,9.643794876699648
1400000000,1.4000000000000001,0.05049808225206633,0.03595621713635885,0.11974139509232178,-0.7288330283600176,0.33161765332038,9.463323065954528
1405000000,1.405,0.053277311393550936,0.0334652842171316,0.1246665073755153,-0.36210117354434107,0.8283712351048464,9.478850006878387
1410000000,1.41,0.04724650457992038,0.033325886843880624,0.11826810334905012,-0.4124546126335774,0.49559307353166376,9.601138591605475
1415000000,1.415,0.05211984201249431,0.035388705933300256,0.11964405512829025,-0.49889287975614705,0.7885034063223061,10.03757193481313
1420000000,1.42,0.04986996382683175,0.03532342896344296,0.1207226718798104,-0.603402759215199,0.8699348279801963,9.620668155239724
1425000000,1.425,0.05199973339784961,0.039725461652053824,0.11953445483330143,-0.6593767745495211,0.5721143925542354,9.776100043011102
1430000000,1.43,0.04750083861041132,0.03670766293969059,0.11862331430686669,-0.5011564892951722,0.571700086527818,10.0370331213824
1435000000,1.435,0.04965228805869856,0.03239960377220878,0.11778412936654258,-0.47819023415041284,0.426725216339089,9.69964560301897
1440000000,1.44,0.05130471173809875,0.038913389708468665,0.11857434076243452,-0.4241025538257524,0.5373936797056713,9.717842405766078
1445000000,1.445,0.04869118465258349,0.032454199655613615,0.12077681468900593,-0.6439063800825602,0.562235552478101,9.702053930310134
1450000000,1.45,0.05490441523576294,0.038037523754625234,0.11532876711593659,-0.6238865374295485,0.22753776173203166,9.66364016387015
1455000000,1.455,0.04991532045036185,0.03521653970457808,0.12121518887971401,-0.5125042286292798,0.5224710522901521,9.786839744025604
1460000000,1.46,0.05374328407368582,0.033813797828845124,0.12265005198666279,-0.655135507146013,0.4066006855403778,9.759950930341406
1465000000,1.465,0.04741526209531928,0.04096978172410748,0.11609386302771997,-0.6982023541428223,0.6632260800915889,9.894992964371133
1470000000,1.47,0.055930652791880635,0.04093918113421883,0.11959167602570318,-0.8462818964925501,0.45703634282072736,9.925549539020984
1475000000,1.475,0.05180194913560771,0.04064475255617078,0.11445836543986923,-0.5419428930237142,0.8134095029277533,9.837906306807843
1480000000,1.48,0.04939448279833483,0.03288887881951342,0.1181912397766599,-0.5412287977397855,0.9659036228742969,9.45309133699664
1485000000,1.485,0.048728353811639785,0.040340539865714606,0.1183711137705839,-0.4562363722182893,0.6205155642325837,9.745491151425773
1490000000,1.49,0.0548566368180517,0.03323682201899256,0.11759581352763106,-0.7109224558578964,0.5254257414497568,9.59757257891011
1495000000,1.495,0.05284118825507945,0.04000414837026269,0.11457105302990596,-0.4194842632650915,0.5621621547382845,9.863771308587182
1500000000,1.5,0.04692864032303046,0.03988762944515784,0.11343687343492104,-0.7128057235411807,0.519002634565495,10.002323160268535
1505000000,1.5050000000000001,0.05236784119103745,0.039423127612578754,0.11330074739198559,-0.623113234017392,0.679153587029744,9.810187097612337
1510000000,1.51,0.050529581124110774,0.03516311388962822,0.11644583341298619,-0.33089011809145263,0.4915701670639515,9.593985621081103
1515000000,1.5150000000000001,0.045896417295086665,0.036922929568866364,0.11474870658736096,-0.6487205948840293,0.680390397999314,9.694248080756477
1520000000,1.52,0.0489719193986746,0.03811630330380181,0.11699192544140789,-0.4915349708152601,0.5695287470965021,9.76923060454872
1525000000,1.5250000000000001,0.050470542868956025,0.038820366205347956,0.11649896240583682,-0.6546522159034996,0.5299850747111642,9.7640908008566
1530000000,1.53,0.05162535495198511,0.03697755172841136,0.11366324021636802,-0.7668682992371098,0.7513958305264222,9.701905531689812
1535000000,1.5350000000000001,0.04961556148800512,0.0396520704496591,0.12020402119145687,-0.52141752904613,0.517560500839974,10.062291549558928
1540000000,1.54,0.045367648486119884,0.03497372527492211,0.11628938983954394,-0.6890470868602445,0.6873305707994474,9.842576115614495
1545000000,1.545,0.05067545196926393,0.03695602066227814,0.1257875086312622,-0.5497044166392449,0.6483118521399548,9.507346094878523
1550000000,1.55,0.04906879964923468,0.040491314069689525,0.11314898377756802,-0.4703796920163651,0.886022499442633,9.478514410851064
1555000000,1.555,0.04646580068418998,0.03371482500611534,0.11444797008860723,-0.8981374261973498,0.6680791498751707,9.822129971017565
1560000000,1.56,0.045707752979124355,0.03852015780359064,0.11994017160755044,-0.7548934429939232,0.6242994120289705,9.401855848048797
1565000000,1.565,0.044915920383089274,0.039978869371064193,0.11696152083756187,-0.6010012815178437,0.9411864218835844,9.748727067624504
1570000000,1.57,0.042056432512460745,0.03904454259230905,0.1110707829664611,-0.5230983962503767,0.5766031473856399,9.850966662448553
1575000000,1.575,0.047810215758013405,0.035266820391504035,0.1166886182235922,-0.6398363495112596,0.6109801499958639,9.561619040571616
1580000000,1.58,0.043955844588079156,0.034957592322056114,0.11217523863791809,-0.5836878276307617,0.6255433203185256,9.709954311191241
1585000000,1.585,0.043803370433930656,0.03907878484711112,0.11360615844074151,-0.7477895478982471,0.7345971192149786,9.713538608483145
1590000000,1.59,0.04633659917740272,0.038465483816323295,0.11405862369522592,-0.6771587695144161,0.6468521705721054,9.652187451449073
1595000000,1.595,0.04356879796366566,0.036883472516761225,0.11938032470966457,-0.45735203043065675,0.734729736211529,9.679578043550288
1600000000,1.6,0.0492467783701978,0.03675687311202661,0.11538088138938027,-0.7128398393636234,0.5687238841746346,9.846423286356552
1605000000,1.605,0.04396143002068998,0.037571694433501744,0.11445194311993247,-0.44414471012947465,0.5149146806010664,9.65609759036584
1610000000,1.61,0.041924763213147136,0.038628405476621344,0.1125512711232454,-0.6814789615905726,0.5708097084916721,9.752773339361942
1615000000,1.615,0.04048910655385145,0.035721249923359275,0.11539888320574287,-0.49596445773157827,0.7105517799923365,9.490633258494297
1620000000,1.62,0.04443994108541465,0.041128958528594446,0.11944582824943184,-0.6115372441292852,0.7986920888140184,9.805167840341626
1625000000,1.625,0.04914783328233429,0.034373668136029274,0.1170860851295233,-0.7118514331757099,0.6624778158796516,9.94298933887818
1630000000,1.6300000000000001,0.047931392893695,0.03824060913016269,0.12060114260098917,-0.4918996051372814,0.5637396053385552,9.49474172486644
1635000000,1.635,0.0469914876243167,0.042786419617932704,0.1177865792257252,-0.6732477824986335,0.6379920289733673,9.842342468255062
1640000000,1.6400000000000001,0.043250058445783154,0.03175925172729585,0.11403410207486789,-0.4608268015183028,0.49939242354697766,9.65691225654425
1645000000,1.645,0.04314244326393837,0.036846097606131015,0.11486064547996763,-0.6785768944873034,0.5093214307688455,9.779015237339008
1650000000,1.6500000000000001,0.04551031841973653,0.033285694076480146,0.12074679764142157,-0.7438930194534977,0.9599007306149655,9.71291735168146
1655000000,1.655,0.04608296079787483,0.03571580479919211,0.11882327504890343,-0.5926917090049527,0.707116549015656,9.756043481692256
1660000000,1.6600000000000001,0.039543968399051464,0.03740659967048238,0.10930424671744768,-0.6089210198920989,0.4027165020270425,9.783787577802638
1665000000,1.665,0.04421770829056259,0.040129316172724715,0.11094822584435014,-0.9385500648547811,0.6542016102063409,9.937754649086493
1670000000,1.67,0.04378784216624867,0.03720690394556811,0.11337639620508519,-0.7151734997219197,0.7913486216685345,9.708342945855698
1675000000,1.675,0.04164651955253625,0.038162702178492235,0.1191798018397642,-0.3406863286186136,0.502720647487447,9.443052840871816
1680000000,1.68,0.04363713128852545,0.03700166390906154,0.11515906368686372,-0.8117665390459057,0.3048295267701821,9.5902730657794
1685000000,1.685,0.04145662650162695,0.039514272335598934,0.11580350039859735,-0.5185047903054565,0.6499195150029261,9.80362671665243
1690000000,1.69,0.04069811526591743,0.039953779439334675,0.11161821311299626,-0.4449586728018608,0.7743437882391615,9.840383475617715
1695000000,1.695,0.04196940480111437,0.03942405541208654,0.11331741946677602,-0.8213413454778514,0.8622334819724383,9.785036170365283
1700000000,1.7,0.045504368385119884,0.03938036161274407,0.11748855075904278,-0.5649634607929492,0.6166795985564862,9.941341725447588
1705000000,1.705,0.04254182728387979,0.03940907143975426,0.10994334352614103,-0.6720579959676046,0.749030512306459,9.878360142271084
1710000000,1.71,0.04599930959940292,0.037056159222842305,0.11851638370052822,-0.6662857778552402,0.7543422214711049,9.661921776559076
1715000000,1.715,0.04530860301976034,0.039892010283583856,0.11489798877519354,-0.6931314892599587,0.4549168763904551,9.639022682695574
1720000000,1.72,0.04212770754318159,0.03825549218177285,0.11379027280471707,-0.7641946986285284,0.9586620313624773,9.668768223292236
1725000000,1.725,0.043381343766753885,0.03913427374632851,0.11241239157049131,-0.5740934357762025,0.9583903155594844,9.756890125221684
1730000000,1.73,0.0402862960428764,0.0396887140687464,0.11382479009937202,-0.6508279574593729,0.6232707529987281,9.842763509779228
1735000000,1.735,0.03760181938943327,0.039044003802617494,0.11233809858895566,-0.7256029825264118,0.843398422805391,9.660476751586696
1740000000,1.74,0.03941223556207575,0.03789125234726206,0.11227291294693845,-0.6671046261874605,0.7767841500646071,9.958783281484985
1745000000,1.745,0.0348955417010505,0.03819063214129939,0.11664963161121993,-0.72610107178119,0.7266629835979271,9.758103332393064
1750000000,1.75,0.04288412120336254,0.031564701788884875,0.11104156655323381,-0.6341022245739208,0.5836393788051036,9.562526408186148
1755000000,1.7550000000000001,0.04224417570195415,0.03458267143885994,0.10661823058969928,-0.5571224992892787,0.47707432548713946,9.708136244149905
1760000000,1.76,0.036723422010210456,0.04356449927928614,0.11157481600135431,-0.8655530659134224,0.8157748407460975,9.965796335837823
1765000000,1.7650000000000001,0.039337810384845205,0.04175126460136877,0.11329189872566278,-0.4697418732254294,0.6953310846552762,9.906840251481466
1770000000,1.77,0.041506605084626946,0.0427485117972497,0.11077461387619991,-0.6043488501583482,0.7384748009771959,9.853216306311728
1775000000,1.7750000000000001,0.04150746234302276,0.0342198648661718,0.10988568911389002,-0.5343483055178314,0.7082356889970821,9.808347827637922
1780000000,1.78,0.040331112431042725,0.040937334184679194,0.11889509712777552,-0.8689378149265279,0.5982728765823637,9.414830287416708
1785000000,1.7850000000000001,0.04180053579111688,0.03873447783206912,0.10869491173053535,-0.7883531564087451,0.7818755240305284,9.63583637887652
1790000000,1.79,0.03744504770677321,0.04198444156797059,0.10911157094886548,-0.8287446951371716,0.7731777901504926,9.561126976804301
1795000000,1.795,0.03888025409819258,0.042882330878204096,0.10953768539231783,-0.7087524353531826,0.6917734644879846,9.706447061984544
1800000000,1.8,0.03819173115281319,0.04262630715995451,0.11745031273286347,-0.6850958836544399,0.7444673454951009,9.872568939145966
1805000000,1.805,0.03387750788266909,0.03922337418712976,0.11522207513004071,-0.5769196957737028,0.7899780399318803,9.766723698013505
1810000000,1.81,0.03379185913347983,0.040296971717292566,0.11177237921578421,-0.7774913686390141,0.7677579735783329,9.69295110151589
1815000000,1.815,0.04017021091834346,0.043584736718826685,0.11070590700228866,-0.6542803488831506,0.7201897497882888,9.783102967271182
1820000000,1.82,0.04203812692448365,0.042070630859668015,0.10560154414544226,-0.7828287851786835,0.7997318351415371,9.45288020478057
1825000000,1.825,0.03712160666217022,0.036231054628575475,0.11263785685707016,-0.6668555226989209,0.7951848133479701,9.604782422146192
1830000000,1.83,0.041954207569037935,0.042989277954176064,0.11351969488807127,-0.6445467904492856,0.6970415013563581,9.81765015255956
1835000000,1.835,0.03684554215776022,0.040188468078226375,0.10906335903613008,-0.7094757813548576,0.8942501384020299,9.682416145526705
1840000000,1.84,0.04212204936641436,0.04307492252024067,0.10942540362466616,-0.6560532296747996,0.5008906477109525,9.648928106245734
1845000000,1.845,0.03684234270122342,0.04240575353424329,0.11520662930600553,-0.6799864715366211,0.7104416167209826,9.446459326004799
1850000000,1.85,0.035758118577761,0.04075736196479361,0.11316255091128263,-0.8877420971367087,0.8123839535317207,9.776217315647559
1855000000,1.855,0.033689666866351886,0.04238417118497084,0.11507935526855755,-0.5345728772969262,0.8248329713854667,9.877255530676758
1860000000,1.86,0.03882777650852035,0.044179456434638005,0.11529524590190357,-0.7805092552146148,0.6214194057367413,9.8180083255236
1865000000,1.865,0.03535828972617925,0.04214968429895521,0.1114511258187128,-0.7650188286450079,0.8940385176663519,9.500409147018276
1870000000,1.87,0.040006121078321036,0.04536439135731961,0.10918382345772894,-0.5764919734147644,0.7892902823786252,9.75337247549619
1875000000,1.875,0.03937074720522223,0.041405703764295795,0.1132353807730114,-0.8380278216204365,0.5998907066521103,9.473319565772341
1880000000,1.8800000000000001,0.038237312062181485,0.03814914448656986,0.1099097112314665,-0.787058185669685,0.6609121110284645,9.67194536786229
1885000000,1.885,0.037561641067149945,0.043396208511434595,0.11262002458779216,-0.5381749693832372,0.9571053527595305,9.500666817967561
1890000000,1.8900000000000001,0.031769219356127684,0.03906602297975783,0.11216393449427255,-0.6757254275019189,0.7544295604098228,9.665811214257253
1895000000,1.895,0.036529296246695785,0.03993964308908202,0.1081858869003779,-0.64960452789609,0.7666837181953807,9.893647818518074
1900000000,1.9000000000000001,0.03899852800684543,0.037345223142191956,0.1150507261983485,-0.8603053228961236,1.044524350365379,9.569679997901485
1905000000,1.905,0.034818615870999964,0.04320592575278848,0.11144889718907883,-0.5958572946372362,0.720807324933737,9.590290193679518
1910000000,1.9100000000000001,0.03451788728536892,0.04144036072901706,0.11231317984417516,-0.7381818346886029,0.974206288856791,9.84058894379949
1915000000,1.915,0.04071025742108151,0.04462638690056645,0.10759309831284888,-0.75209141810863,0.9901055301544901,9.755592889537514
1920000000,1.92,0.03607615723620157,0.040070990085969656,0.11383619125429437,-0.6170505094583056,0.6908693221360259,9.705386723592131
1925000000,1.925,0.03386268450223781,0.03890370724036976,0.11360713823425829,-0.7795886398438505,1.0556644156896016,9.57013467549803
1930000000,1.93,0.029876241114289694,0.03299493681921576,0.11272121906648092,-0.6620690134513721,0.9320281392732831,9.599419360048396
1935000000,1.935,0.034711023368457425,0.04280727004627874,0.1104601261460904,-0.6279068613010671,1.0441375234182284,9.49833539611582
1940000000,1.94,0.03364654922778581,0.03973058613829626,0.11227560323803908,-0.7639108188678922,0.684449153475084,9.729935171872967
1945000000,1.945,0.03740503565549404,0.0383687187043422,0.11211510558533222,-0.8416929182844094,0.8245693076621444,9.787219602848184
1950000000,1.95,0.0326578216664975,0.038432073236980085,0.10598400276387299,-0.7546231782201216,0.7400110795308177,9.902831172551409
1955000000,1.955,0.03509805255989134,0.039819326767092336,0.10717018126550076,-0.5886614125575046,0.8980060156158209,9.667653144328948
1960000000,1.96,0.032850794098403545,0.04284882450076497,0.11104827716074463,-0.6428192098230825,0.8072744788211729,9.893477764911538
1965000000,1.965,0.03447660213048811,0.04034026933908751,0.1095716578891196,-0.3879795396714889,0.9949275302697765,9.79657326093624
1970000000,1.97,0.03505524186851361,0.04393355853788286,0.10747415273527551,-0.5017732157240052,0.8321575229830421,9.52605702366586
1975000000,1.975,0.0344550272725481,0.038176882589433636,0.10716603592486389,-0.6548952486946783,0.9014778370147419,9.694282836060893
1980000000,1.98,0.032011182053423085,0.043315470585212734,0.10594005513942607,-0.7628929631195076,0.7757882791856237,9.618270077530193
1985000000,1.985,0.03376661081136426,0.038540509711120954,0.1112684694391644,-0.8714162968090388,0.8705423179413705,9.526451972783402
1990000000,1.99,0.02877175397026609,0.03855275063360634,0.11714566780281367,-0.7354684195509973,1.0072532885353744,9.538726112146522
1995000000,1.995,0.032958864835757724,0.03776823599570787,0.11063756528415758,-1.0289519370782705,0.8150564208573389,9.655911756618226
2000000000,2.0,0.031122299864619615,0.04321015641702521,0.11320937566611912,-0.6628900073570125,0.8329396910919767,9.495981402556318
2005000000,2.005,0.03481712033868551,0.04059648429639476,0.1086335952426895,-0.6425896197956618,0.729275137405687,9.73662119819537
2010000000,2.0100000000000002,0.03532853451967356,0.03805255984882097,0.11065343611559124,-0.745957215040955,0.8790175447380855,9.704946284276009
2015000000,2.015,0.03463977125489477,0.04102752034773393,0.11219896774927554,-0.8045825013985366,0.7395142259973093,9.883872763656377
2020000000,2.02,0.0358717768175868,0.04807654075565942,0.11127172392247058,-0.8190310764989291,0.9165000777491281,9.321483029286682
2025000000,2.025,0.032898917597586834,0.041364563221397754,0.10913333147481814,-0.8080616061737507,0.733779604233633,9.595386563303954
2030000000,2.0300000000000002,0.03026024047731256,0.04422467373362407,0.11143769566061555,-0.9180305639245482,0.8854286964449688,9.606391815501198
2035000000,2.035,0.029691222945087904,0.03805686226351877,0.10692491736210223,-0.6538272860105893,0.7873000565776418,9.58309457098511
2040000000,2.04,0.028938820738944257,0.04046742276565155,0.11026695150559677,-0.9832647329016859,0.6978393004824128,9.786987372826788
2045000000,2.045,0.02807572325563641,0.04213838261207303,0.11135755851371652,-0.7078108534932701,0.7416366534822135,9.618658371530334
2049999999,2.05,0.030232559848382776,0.04223244910482833,0.10461011749371714,-0.5116049094269736,0.9031453441320257,9.774881862419313
2055000000,2.055,0.0341085723589584,0.03761434329266815,0.10982873023330622,-0.5310822379518831,1.020569076662339,9.626645019263806
2060000000,2.06,0.03183625924281162,0.04513452365674018,0.11030951487220901,-0.5020748619116757,1.010779954237313,9.58692500034905
2065000000,2.065,0.030635902408840267,0.04247954834305624,0.10612796115458104,-0.7782064522650759,1.0154523776965185,9.684126620338144
2069999999,2.07,0.026648656636860033,0.03773402478269556,0.1117892242918768,-0.7933757288974597,1.0728186326785232,9.90745955745759
2075000000,2.075,0.03001439677572387,0.04183022737799953,0.10834176954347902,-0.92235974740587,0.9946390907124412,9.731652903373734
2080000000,2.08,0.032752969220743285,0.03924826717007817,0.10650581879582822,-0.770383602866469,0.9511759480585755,9.598018985397971
2085000000,2.085,0.03481519181156906,0.043734207986241336,0.10763616724677258,-0.6517125934064715,0.6926499226757528,9.839173814185424
2089999999,2.09,0.02959546532172944,0.037148077905712396,0.11395862592174068,-1.0541985233301439,1.1634658160776552,9.71272769726197
2095000000,2.095,0.03197221136612085,0.04845567611254776,0.11360503447088027,-0.5755707043783231,0.8785182731455556,9.515803485065165
2100000000,2.1,0.023906770773715266,0.04163280600709533,0.11050444064642173,-0.688324468926637,0.6389563389116877,9.666400380371874
2105000000,2.105,0.02920904104637655,0.0405070974316192,0.10637466021309189,-0.7117907463216078,0.8417182749487707,9.518331685137104
2109999999,2.11,0.026093045460846623,0.04109475776045024,0.10886776653400156,-0.6561435761486646,0.8529146923208745,9.694694008390478
2115000000,2.115,0.029492325011130013,0.03870138432207987,0.10975474091280166,-0.7566344404773412,1.0303492043643736,9.73742731513697
2120000000,2.12,0.028754685761585123,0.04075626472705747,0.10947096976193339,-0.751681154187813,0.7845209244552849,9.432511638972384
2125000000,2.125,0.02599281790240092,0.041873195114224784,0.1038250776801846,-0.619332471383147,0.9581384768226888,9.725023169350331
2130000000,2.13,0.024256214692909218,0.04406092116412961,0.10286342532946481,-0.7716388295883763,0.6903716773055228,9.670807189828242
2135000000,2.1350000000000002,0.029790923818491633,0.044144472726895354,0.10778442493625108,-0.6696997444821143,0.794064132507604,9.650940266981742
2140000000,2.14,0.03130782588357578,0.040611483607448116,0.10914742514142142,-0.7005197674470152,0.99558822413061,9.591617291931914
2145000000,2.145,0.025750505419692465,0.04173926757835827,0.10687302846440769,-0.6639218636000375,0.9402833606685338,10.011267087128209
2150000000,2.15,0.026611244291597315,0.04134945136577296,0.10422243724887297,-0.732075221118805,0.6025898829212883,9.676284380421206
2155000000,2.1550000000000002,0.027507404388038083,0.04182485280291883,0.10691245360728148,-0.8304827942297283,0.7569957370565173,9.766920539895734
2160000000,2.16,0.025888600041722977,0.041667927098244795,0.10777162309113486,-0.6258393189378119,0.6229593858369423,9.636863322789916
2165000000,2.165,0.027933566574016275,0.04396794327146857,0.11284005910853921,-0.6285458992862695,0.8535105263571544,9.569242733890883
2170000000,2.17,0.028355519790819687,0.043217744429940225,0.10683097095007656,-0.9203497672921048,0.9116814171686306,9.703979477400933
2175000000,2.1750000000000003,0.02594806642320923,0.04296997076490556,0.10760976786960115,-0.5240295559924395,0.9064763139277444,9.656915002570635
2180000000,2.18,0.02749508419733259,0.04416601421883589,0.10552808295424852,-0.9269398849662567,0.8699820895227268,9.732118999436297
2185000000,2.185,0.024079140236384872,0.04027452451927826,0.10440074069084149,-0.6412393667254177,0.9061160040753768,9.603661437783693
2190000000,2.19,0.02740561550836945,0.04297913764283183,0.10899356111388711,-0.8382050907411204,0.8052330143474928,9.458290050939436
2195000000,2.195,0.025300404203801367,0.044014508276100324,0.10136925024203355,-0.969900409279236,1.0138119135386314,9.870802373429044
2200000000,2.2,0.022841788311611558,0.045654383444438305,0.10372058972802019,-0.8727417739462696,1.0062698781705612,9.83338664673721
2205000000,2.205,0.028077917010777394,0.04258613554487325,0.10474581049758926,-0.9947914348504441,0.7849062791547021,9.875123460114121
2210000000,2.21,0.025162226718340612,0.045285660591242186,0.10296254239283649,-0.820721703432487,1.069462405881601,9.669714223987626
2215000000,2.215,0.02882365792649158,0.042388543980259596,0.10570415991161888,-0.9990241321116872,0.8868891835415386,9.660448098808809
2220000000,2.22,0.023398501432691482,0.04038225522158563,0.10359668330717602,-0.7193291262384659,0.6726866265278311,9.61152764334708
2225000000,2.225,0.02462799013660988,0.035561072565120797,0.09929599704824243,-0.9367460572043376,0.9818882304747854,9.446947281181336
2230000000,2.23,0.020118263177593063,0.04100583511807353,0.10472198436706275,-0.7651383206450693,1.0873910356417111,9.61124345673639
2235000000,2.235,0.021539797957292908,0.038594890544848964,0.1016548801367158,-0.8168419754491386,0.712863606761825,9.880228059876687
2240000000,2.24,0.022306948966991782,0.04653789410493526,0.10704081202256059,-0.4273183219912665,0.6081384457084187,9.77344814235959
2245000000,2.245,0.020710164334456337,0.04403945368884643,0.10523842005634812,-0.9803596610189025,0.6198590703533055,9.588339205563559
2250000000,2.25,0.02019343717008349,0.0450141520833375,0.10388262937045613,-0.961247919863294,0.8732976331299444,9.762725379797807
2255000000,2.255,0.022736269027993198,0.03841836573585187,0.10446140310906639,-0.9024459172584927,1.054994904902435,9.586728554215275
2260000000,2.2600000000000002,0.02223229719012509,0.04000012048107664,0.10457056909599208,-0.8205796837656066,1.0254402197730241,9.823249876106008
2265000000,2.265,0.02159040459585014,0.040207445255061015,0.10630709645392009,-0.8046273081286635,1.1017101931795452,9.735153787759927
2270000000,2.27,0.026580508906114228,0.045686572455713934,0.10229418825325721,-0.7524047904815577,0.7368792977127507,9.624222331481658
2275000000,2.275,0.024473580343182658,0.04242373361486289,0.10305018448317044,-0.8039181343121292,1.0307480560682116,9.840775640666333
2280000000,2.2800000000000002,0.022102691332939586,0.04481681001169265,0.10941932606404467,-0.8526437861580773,0.8682708266385868,9.662487369833599
2285000000,2.285,0.02212792354924228,0.04458711023600043,0.10270647411515535,-1.1380946836561343,1.0459586047868235,9.705390970184322
2290000000,2.29,0.02358232752657275,0.03777716529782493,0.10231110585034216,-0.8201573348709844,0.8499726096761189,9.375989255049438
2295000000,2.295,0.02631959656958207,0.03737733283249561,0.10500689786348355,-0.835151581575273,0.9236544945451018,9.705412299564847
2300000000,2.3000000000000003,0.02592562381047544,0.04169736144532825,0.10297364728927745,-0.9095912020276024,0.8517072850291512,9.792706531924164
2305000000,2.305,0.019099100321499855,0.04434136158020922,0.1081594148712667,-0.6191391892586221,0.9765658533495741,9.663375224676255
2310000000,2.31,0.019657309429197523,0.04278376149751326,0.10279446372231198,-0.8578670638724325,0.7119826724585842,9.973887758875142
2315000000,2.315,0.0204657610371643,0.04373170895924474,0.10327240446509074,-0.7965858341164314,1.098179707432259,9.681774677553852
2320000000,2.32,0.0192839241143033,0.03606769329057249,0.10119463521611435,-0.7697015816448338,0.8101912930311195,9.685429218707553
2325000000,2.325,0.020056367582900168,0.03384005052453748,0.10634015116495792,-0.5406557203836712,1.0975572762569046,9.91816806085219
2330000000,2.33,0.022023189830263485,0.042868950022751325,0.10235351978636796,-0.9170582669819043,1.008520971901844,9.844734845864945
2335000000,2.335,0.023391040514289113,0.046549832344604886,0.1057243087529592,-0.7523034237949044,0.9871140151121539,9.50582229227105
2340000000,2.34,0.01869015508679608,0.04288349088851254,0.10753975424954652,-0.8363948914279656,0.9113273483252481,9.740690377277083
2345000000,2.345,0.018958377332830588,0.04351663548561573,0.10848352664592296,-0.9283098231031606,1.0107978195336338,9.580660860444437
2350000000,2.35,0.01927628337315035,0.04593302824424119,0.10658237970581208,-0.7034504664418002,0.8812809112785026,9.284659252711986
2355000000,2.355,0.024717031738253733,0.03957830621673824,0.10223263562291945,-0.8342037749127138,1.121462291667902,9.561347976364425
2360000000,2.36,0.027704752394946477,0.04158724908545126,0.10047386189737297,-0.885700400244627,0.760277579923622,9.783272110460445
2365000000,2.365,0.01761689085069404,0.04157086205959251,0.10059137561710116,-0.7923621754848895,1.155071386025135,9.735957729679946
2370000000,2.37,0.025127126502640755,0.04289612036462869,0.10095578440039359,-0.9981463509340945,0.9424921332315829,9.694676040674764
2375000000,2.375,0.02286462940533016,0.042236770906666464,0.0997991317441543,-0.8234648627667681,0.9370371242554856,9.693176732486581
2380000000,2.38,0.021506618632988486,0.03598055355258887,0.1006589728938075,-0.6997339975181255,1.0254849598010434,9.740625538640137
2385000000,2.3850000000000002,0.019348021798915403,0.041466297948312046,0.10467856588482857,-0.8852762128182465,0.7988420718418873,9.372453990914861
2390000000,2.39,0.01963864039603655,0.03717441596881557,0.0966812781258298,-0.7410170416130026,1.1717705798968656,9.595851807135801
2395000000,2.395,0.01885039069211216,0.038346781911347654,0.10319771742003807,-0.826496194843993,0.8354305918885978,9.678205405856804
2400000000,2.4,0.020999062148780508,0.04104286204013446,0.102063866368551,-0.8208355444002594,1.0480219406328095,9.545741518183297
2405000000,2.4050000000000002,0.019132536741287363,0.04321717248887734,0.09789679558395062,-0.7273755257035598,0.8581344734332627,9.728013630651928
2410000000,2.41,0.014275264556850104,0.03412640891854326,0.10212396196601702,-0.8465840685523371,1.0613916366130978,9.669259558914755
2415000000,2.415,0.017535157581518895,0.04633287328997712,0.10451114363313681,-0.38986866678574955,0.9426599406626243,9.756470811949816
2420000000,2.42,0.011631484407437855,0.043094309382727514,0.09877586894014966,-0.44678022977074544,0.9479523491830802,9.840284071456015
2425000000,2.4250000000000003,0.01803457331460259,0.041227017014858126,0.10143328327124052,-0.8252564914011079,1.019951513641465,9.52653575685687
2430000000,2.43,0.014694253722459184,0.0394276078960813,0.10189129059364646,-0.9870183405385796,1.0993861744600952,9.710179962679126
2435000000,2.435,0.018677376930735436,0.039739241515111295,0.10250769122812634,-0.7300393561060027,0.9075921153564963,10.098057844970354
2440000000,2.44,0.01686585415863114,0.03596374812032699,0.09907088835587906,-1.1474688548573364,0.9127851414578287,9.641451690836277
2445000000,2.445,0.021231216177435452,0.03823376959719849,0.09599618294001984,-0.9264176330333787,0.9327680656847713,9.594101617863299
2450000000,2.45,0.015374077575760583,0.03861373842691977,0.09406109366907278,-1.1749151818603394,1.1857194140653982,9.778992279415366
2455000000,2.455,0.01738933003063258,0.044028121390200105,0.10017031182636181,-1.0338468417212516,0.7751259218984365,9.747664053255594
2460000000,2.46,0.01853646023045619,0.04066101034641907,0.10382448915367175,-0.9633456663493679,0.9365830784110778,9.658944798703713
2465000000,2.465,0.01875164157977778,0.04110364883833078,0.09520877767815474,-0.7251335355408501,0.7278669596139781,9.775135242820669
2470000000,2.47,0.0214864504756228,0.042086290846304525,0.10353388609888724,-0.6719366862979383,1.0511926681616262,9.54703520407523
2475000000,2.475,0.01487631216332743,0.04409913111460271,0.09524755022472302,-1.0267341259393674,1.104580354579494,9.683825633225435
2480000000,2.48,0.01513946407661879,0.04657408614821367,0.09756149762483306,-0.9422598358153421,1.1113071798177514,9.758715361073625
2485000000,2.485,0.01898416910745234,0.040730028269645766,0.1016970008292273,-0.6483956512443894,1.0159286567949521,9.803967552621573
2490000000,2.49,0.02168022525529072,0.04180153792948776,0.10415294872540329,-0.6089999712814853,1.0875515776495548,9.717470626359118
2495000000,2.495,0.01831406858517122,0.041136486699934215,0.1028124083849713,-0.782252612173839,0.9450003056784922,9.759583276099134
2500000000,2.5,0.014787019555086373,0.03612763595845744,0.10267402414886816,-1.0022662007490764,0.9127694644420112,9.550271301980246
2505000000,2.505,0.01510258972912939,0.04329898925609268,0.1000525570052431,-0.8174398439174085,1.158019525393688,9.751213101069311
2510000000,2.5100000000000002,0.01072226389939125,0.03933116445240916,0.10066558399481629,-0.8915662340736804,1.021075705462107,9.834972303087978
2515000000,2.515,0.021396014077614392,0.039483968982393064,0.09945153407364334,-0.7256110390739211,0.7661282003473315,9.799390868434319
2520000000,2.52,0.01595718366819047,0.04469266683948073,0.09925002137334951,-1.038735954613644,0.8853421357443877,9.878137482835003
2525000000,2.525,0.0124531912208527,0.04351081817176181,0.10138937184596049,-0.8424692174415658,1.110536440396694,9.631694460180746
2530000000,2.5300000000000002,0.01086094731678242,0.044144939653309574,0.10321345870533043,-0.8241871128002521,1.0736515456963103,9.924769457778783
2535000000,2.535,0.016574314728692807,0.040585212327106684,0.0982700917381449,-0.8647389024626116,0.9637513663098931,9.639376671361488
2540000000,2.54,0.011084859631526767,0.041265794923810155,0.09609498398548823,-1.0139306842537892,1.0244637110141448,9.716199200093582
2545000000,2.545,0.01353040651701667,0.037315206703238894,0.10085000519867472,-0.7776249254581001,0.9105406003074259,9.83042954269941
2550000000,2.5500000000000003,0.017254981314904216,0.0444227772546274,0.09611230634233947,-0.8703019703904041,1.0354461117049905,9.57543819623489
2555000000,2.555,0.013889253611831938,0.04284230537542791,0.09694761961371788,-0.590768542586714,1.0207138497276513,9.56969102106401
2560000000,2.56,0.018942406203108917,0.03759194029945102,0.09602769852467821,-0.7724169612180204,0.9858907133681282,9.692107338468254
2565000000,2.565,0.009876625268232887,0.035708965551629786,0.10257819548664253,-0.8792992289094627,0.8883772116589685,9.696149879556744
2570000000,2.57,0.01419535348154711,0.03925036498728797,0.09756321399622102,-0.880714008478621,1.081407119991377,9.558059274670436
2575000000,2.575,0.01424491064958774,0.04324719368291218,0.09783885297433163,-0.7223622972421154,0.9773972066801913,9.438492222532098
2580000000,2.58,0.012046859432994954,0.03888293735218488,0.09623810421900998,-0.9548783528064918,1.157195095423388,9.299383627135413
2585000000,2.585,0.015500289365204685,0.040202041490818095,0.09634909758971544,-1.024833074761639,1.2466832336790428,9.626486495883478
2590000000,2.59,0.012296774586104432,0.04511124759237569,0.09906570716404571,-0.8596585095368636,0.8548759847912385,9.645396662073559
2595000000,2.595,0.011741753772734634,0.042483282087231726,0.09570322133249423,-0.7449774291915701,0.93596414411834,9.72411815725685
2600000000,2.6,0.01371527651819045,0.041505019026433616,0.09259325798911641,-0.8937782448405167,0.8936212129015457,9.871336920436404
2605000000,2.605,0.009183697480656023,0.03869729153016833,0.10128753069241576,-0.4909787233626591,1.0702856045577138,9.628244740289274
2610000000,2.61,0.01082365624012231,0.04167828687635178,0.09691729123439362,-0.9498543761383405,1.0485100397678764,9.693218877423226
2615000000,2.615,0.01427661556289071,0.04240687806928896,0.09539271681469924,-0.7370905123573297,1.00395832565181,9.511836758660436
2620000000,2.62,0.00813297862658826,0.041388613037470184,0.09434150144922117,-0.6617975556807529,0.9864881567637048,9.64869253892212
2625000000,2.625,0.00903545308429222,0.041836221807295786,0.09667157587394214,-0.8988846983202116,0.8283950888074919,9.818430587574658
2630000000,2.63,0.013862696611877924,0.0390550537633819,0.100249898574549,-1.0437057420261353,1.1192340826729124,9.838591539189466
2635000000,2.6350000000000002,0.014710653726456567,0.03545566109087813,0.09540365905292655,-0.9387773022714361,0.8346284144613991,9.609733150236709
2640000000,2.64,0.010403176806156614,0.03877165422038247,0.09664292395592058,-0.7724070280989448,0.9726384597994748,9.702484693259958
2645000000,2.645,0.004762066922515415,0.03851373869632733,0.10251838296635213,-1.0363690156636087,0.9346692297395038,10.075964120839087
2650000000,2.65,0.009767554927453119,0.0326091296484107,0.0940224185204415,-0.744806023894302,1.1967706453901703,9.61033499046667
2655000000,2.6550000000000002,0.012856120932255875,0.03926230006172933,0.10206004285201441,-0.7144639376009544,1.2190400843300153,9.658571938819547
2660000000,2.66,0.0046272356851519885,0.038985671023916854,0.0916374980002144,-0.8113887810742798,1.219209554564752,9.679400962407136
2665000000,2.665,0.008913357068804558,0.04036040115526203,0.09750561761742901,-0.857884233066328,0.8591671552704925,9.807323788899701
2670000000,2.67,0.010807532817912958,0.03694749269744169,0.09229338576630829,-0.9371786638302684,1.067784783575073,9.745007698684462
2675000000,2.6750000000000003,0.007301899345619681,0.04305300282131822,0.09964772224442638,-1.0369186872629426,0.9268588094634579,9.867077887287204
2680000000,2.68,0.010863275854684513,0.04023657541857558,0.09034286441286096,-1.0864833158888012,0.8546957914073734,9.701995193171578
2685000000,2.685,0.008491128444159338,0.04142241414894503,0.09250463906712106,-0.7669027018263865,0.918151674183249,9.57454394569314
2690000000,2.69,0.00861575681553521,0.04030684912682458,0.09209022957037202,-1.0457955931309162,1.1870107652634196,9.584142678089211
2695000000,2.695,0.003746189653467928,0.04028801153156143,0.09833486120205805,-0.8044170708489735,0.9533614306504552,9.688197004299564
2700000000,2.7,0.00810565168963129,0.03449919086491164,0.09643420926144826,-0.7822631680443424,0.7614557346469263,9.557554976124518
2705000000,2.705,0.008392670739374771,0.03739824640205148,0.09866244696667041,-0.7456471701206027,1.1430806333146402,9.537797408150169
2710000000,2.71,0.01279775426228168,0.040838242282759084,0.09293169012203349,-0.7312767825800877,1.0137738903045477,9.86234174838794
2715000000,2.715,0.007197570830478321,0.0405563530604956,0.09814747936883014,-0.6434208371587762,1.0716656603763015,9.300660396604814
2720000000,2.72,0.006131190653987494,0.040523913343355415,0.09218570424153369,-0.880793007564757,0.9387674762762968,9.76485905983346
2725000000,2.725,0.0034339679880178112,0.03581973278580778,0.09587647612991573,-0.844765571583316,0.6750206748433396,9.435395591050113
2730000000,2.73,0.00967047982495808,0.0420273170603125,0.09380841774458805,-0.8289805362616751,0.9485413860638966,9.643365013560848
2735000000,2.735,0.007187328998253238,0.03425378662815843,0.10062163157718323,-0.889097130983884,1.155241741106349,9.891681692431055
2740000000,2.74,0.00663101857344104,0.03355168627889374,0.09896436480506461,-0.972865036257077,0.9136644768268205,9.718992274943142
2745000000,2.745,0.0020209236092525677,0.04160088875255359,0.0929235948685011,-1.0120878251233416,1.0952269377684027,9.652617128445826
2750000000,2.75,0.004767186285799606,0.03830087885847955,0.09201864426958284,-1.0708078907853478,1.0664035898506181,9.812212704642155
2755000000,2.755,0.0028200297382374295,0.0370579763055262,0.08741277370247157,-1.06264241254211,1.3697404330887766,9.791687366584863
2760000000,2.7600000000000002,0.002286103957285875,0.03891292795930081,0.0929219061520767,-0.9825889725947855,0.7702023150535073,9.736034547025996
2765000000,2.765,0.00413954382038478,0.03564987335356351,0.09116191475319348,-0.8367054107200844,0.8754086707653096,9.627081897490804
2770000000,2.77,0.004844926015280778,0.04260514426869621,0.0902331288520804,-0.7351285783961348,1.0902748283954586,9.719677676974905
2775000000,2.775,0.0026744559466133798,0.03678096018094872,0.09480884500882208,-0.7745318517929434,0.9736743838875103,9.805554457946617
2780000000,2.7800000000000002,0.004206335805346951,0.0357556579741031,0.09272031722932861,-0.8409863990541822,1.081288732642153,9.81572779657318
2785000000,2.785,0.007224793141979954,0.03524374267406935,0.09283379099731077,-0.8916554123452075,1.0848894752161955,9.610409298424168
2790000000,2.79,-0.0005582576422246055,0.033193396061148454,0.09269514887754804,-0.7537138115199372,1.2249330668475678,9.523608450763792
2795000000,2.795,6.840989640382808e-07,0.03837514777251985,0.09626013927059679,-0.6887041524940797,1.0253389742584718,9.83510674334057
2800000000,2.8000000000000003,0.0031035381756970358,0.03635901052479093,0.09023411941203836,-0.8158760407764672,1.2209631224130584,9.730612526756719
2805000000,2.805,0.013525170887328124,0.03400230162430228,0.08824506778282468,-0.8762070827813663,0.9719654958324997,9.770487903340987
2810000000,2.81,0.007586347351936128,0.03465921829021877,0.0922289552988082,-1.0393959367072787,0.9386726289380845,9.548561965858624
2815000000,2.815,0.005732730868515638,0.041458604149208406,0.08686318241286771,-0.8495874747290036,1.139533680753532,9.975527987549158
2820000000,2.82,0.0016248698944605362,0.038984674019656246,0.09523182526751753,-0.6658587016640058,0.9818427965740861,9.679109877762423
2825000000,2.825,0.007324571825251798,0.033372871485863514,0.08955090704189392,-0.7300538578017622,1.0728944350575385,9.69185173850849
2830000000,2.83,0.003600721608649076,0.03997061457662655,0.08986906574465209,-0.7749082412196433,0.9866308030552491,9.65539410969451
2835000000,2.835,0.005483621923781937,0.03234770256390248,0.09007914106613406,-1.023688641116623,1.055480390084314,9.555035353384081
2840000000,2.84,0.001615219374047779,0.03789152512964016,0.09446109654318553,-1.180059595157166,0.8647395463075344,9.683468069194141
2845000000,2.845,0.0049981414337463064,0.03289972016870732,0.0948608855470032,-0.9274194600319282,1.0134358438718187,9.746430256562096
2850000000,2.85,0.004003162353099932,0.037486412625114096,0.09928551386974269,-0.9936939076923977,0.9959564312751252,9.948538128851553
2855000000,2.855,0.0018312216204631549,0.03859154484397256,0.08968777334203071,-0.899913695382395,0.8326569671865826,9.687144460305618
2860000000,2.86,0.004574607165844643,0.037846605925395696,0.08809946055315536,-0.9067898759268039,1.2232857888325726,9.838861064507824
2865000000,2.865,0.001193392148212151,0.03533577976385331,0.09232127323326872,-0.8279699611926121,0.9745926766923284,9.641524665061883
2870000000,2.87,0.0010917462053504716,0.03425501882472908,0.08966869268097462,-0.9961964079063661,1.0654362656854948,9.827076290189448
2875000000,2.875,-0.00036140048231034835,0.03467465546591548,0.0891678933920801,-0.7734057952071909,1.0876692500763203,9.743925667833674
2880000000,2.88,0.007721801170316198,0.035505026745183764,0.09222147061894898,-1.0051156528810048,1.245192922777437,9.83539578841174
2885000000,2.8850000000000002,0.0003953939420275527,0.037914276116785425,0.09208714956154873,-1.1961708594513396,0.8945295203837214,9.687323531146623
2890000000,2.89,0.006124427669080159,0.038123723230105794,0.08620640564580336,-0.7049005454375924,1.0171584650815184,9.62362573856971
2895000000,2.895,-0.0005356171803755504,0.03035064271414019,0.09144258692817303,-0.9622101565885699,1.182300320313111,9.496023528525493
2900000000,2.9,0.0004917302585638057,0.03499883529169202,0.09090378748937182,-0.7529589317930802,1.1165034950382609,9.755066008150985
2905000000,2.9050000000000002,0.00638142095185245,0.029601811882538867,0.08724219246878219,-0.6411852729871435,1.2490532285362899,9.875387449942412
2910000000,2.91,0.0034726410284629007,0.037746981022947414,0.0935317740841778,-1.0896426344044392,1.0066839136736032,9.486339079783534
2915000000,2.915,0.0036721386747570525,0.0342664660938984,0.092751055187779,-0.8041813914586912,1.0113242371655649,9.684007497478916
2920000000,2.92,0.0006178376073037688,0.035974965078565894,0.09054490915487169,-0.7231870627676802,1.2908119101331286,9.72597951829997
2925000000,2.9250000000000003,0.0022115131480525217,0.03154319398923241,0.08726558325680035,-0.6245741250154979,0.8574989697978872,9.60611131884524
2930000000,2.93,-0.005289760472149792,0.03241825224481754,0.09259913046161504,-0.8441458083128548,0.9491857703173956,9.91195936713375
2935000000,2.935,0.00375489813267426,0.035660271665072435,0.09329469705373504,-0.8027964432253936,1.010287074701003,9.686707293616772
2940000000,2.94,-0.00115158101424811,0.03476223903815195,0.09088603219441435,-0.9545592296581302,1.0856000315524652,9.96125398320797
2945000000,2.945,0.002773130049931071,0.037877641941156066,0.09237621463350566,-0.6899168878179504,0.7959258718237078,9.855654125873714
2950000000,2.95,0.0009374797407959106,0.02889248693166595,0.09015515884042274,-0.8691707172227198,1.266706409950152,9.574997609011051
2955000000,2.955,-0.002091018223453819,0.030144371125596512,0.0892768818085896,-1.1248886561437148,1.2599975229270255,9.780743850821583
2960000000,2.96,-0.0025349702651974605,0.03448268824564739,0.09350948313078837,-0.8294777417752865,1.0374190591220493,9.411697095761491
2965000000,2.965,-0.0012724654644578764,0.03379046821394488,0.09348245700615702,-0.6717514965434295,1.0412295393797626,9.566563187511825
2970000000,2.97,-0.0011809224942429474,0.03527152400008592,0.08773433774976157,-0.8929792815689788,1.2787650294153448,9.674981727187275
2975000000,2.975,0.001436068040597751,0.026205312535392603,0.0933386622798495,-1.3765130610680532,1.150128150608094,9.690426016256483
2980000000,2.98,-0.002803220728270297,0.032459592629623515,0.09013771028331109,-1.045649761372866,1.1882342406069257,9.631152403059405
2985000000,2.985,-0.0019084356570435222,0.03279488462079669,0.08878452612648251,-1.0273312238987085,1.079081001814279,9.954144917016977
2990000000,2.99,0.0013701410343046,0.030752093138956587,0.08927625031677383,-0.7551088163759674,0.9596899516943582,9.627192061697148
2995000000,2.995,0.0012670068953145677,0.034118861210860524,0.09032191319083974,-0.9636811580572452,0.8103765523686114,9.708269750776441
3000000000,3.0,-0.0002046012592747449,0.03738093971052654,0.0853486675067573,-0.904524306878704,1.1065724866995728,9.801029735190932
3005000000,3.005,-0.004304622331742887,0.028139359307233443,0.09196546016452968,-1.1074866797566931,1.04040757649739,9.688087237578719
3010000000,3.0100000000000002,-0.004244082933254609,0.037721127012060186,0.0894228954758618,-0.9272458696655393,0.9400572426892242,9.678102602037734
3015000000,3.015,-0.0038715470132995892,0.031017465479344527,0.09060041723598114,-0.9625236573696926,1.1384086487212617,9.554360564911269
3020000000,3.02,0.0004260242497489601,0.03787185866947259,0.08828197256542594,-1.197963558818176,0.8917077922609471,9.733966087239596
3025000000,3.025,0.0007131678343945045,0.032833916925631604,0.08892875926160422,-0.6469130034260793,1.1020346848137588,9.741189523744342
3030000000,3.0300000000000002,-0.002143225240775705,0.03467614701702261,0.08611280210989887,-0.8000590854405216,1.0689948234013444,9.889746885142937
3035000000,3.035,-0.010415233230186607,0.03056992011358689,0.08642784179650458,-0.7519292018601147,0.9520719721016027,9.838761092662391
3040000000,3.04,-0.0035010795476463734,0.03322926887531029,0.08938202704996624,-1.0458796699118553,0.9523210473383248,9.585611741781253
3045000000,3.045,-0.0055214773340182925,0.03650898650017433,0.08536003500655037,-1.0783734963375342,0.9651006360584913,9.623218099545797
3050000000,3.0500000000000003,0.0008245765384982009,0.033194026447042994,0.08398751326263769,-0.8406217430328995,1.0865157415161943,9.622554808111826
3055000000,3.055,-0.0026055693312393964,0.03534816982027352,0.08607602513634043,-0.5960018939012575,1.3010493260159985,9.721276413166315
3060000000,3.06,-0.005393888062123781,0.03216450173762299,0.0862429388337765,-0.9954884871049656,0.9602853770378208,9.570888228323126
3065000000,3.065,4.510776022154583e-05,0.030118664013595045,0.09049491099963727,-0.8889848873063181,1.0720786350228622,9.518728974100334
3070000000,3.0700000000000003,-0.0017680236472657853,0.03714972697195003,0.08876539076614424,-1.1146928657378445,1.0337790687321595,9.716937970750246
3075000000,3.075,-0.004139331931626627,0.03234104138369441,0.08858795846484446,-0.8016756625826935,1.161689453018709,9.643263401266562
3080000000,3.08,-0.002312748626273847,0.03519464446913381,0.08545701324899624,-1.118978489706817,1.0574743277935212,9.693827759911764
3085000000,3.085,-0.000560970590301222,0.031487271268690636,0.08649083223856725,-1.0438448341001423,1.3423518363949458,9.634605245726151
3090000000,3.09,-0.006890295126048195,0.034001993660213004,0.08195106641154676,-0.824615351816543,0.9783453614283796,9.685020642415072
3095000000,3.095,-0.005102793818983473,0.031800387399703034,0.08473370614922551,-0.9071700346129277,0.8875625342337183,9.693566918940464
3100000000,3.1,-0.0017762191981057058,0.02947714430499781,0.09031168452795256,-0.6867889755264527,1.5031135125633543,9.700945025896754
3105000000,3.105,-0.0058603668828892085,0.026909785205771045,0.08499286630641792,-1.08732621869636,1.2531634273164334,9.538849364882134
3110000000,3.11,-0.0015777286384985783,0.029732836229638814,0.08310181838483693,-0.6389453529753448,0.9874353237885959,9.642631530181445
3115000000,3.115,-0.005982786043098973,0.029590894018500714,0.0855375562769573,-1.255671313150962,1.1372256732955708,9.959775600338645
3120000000,3.12,-0.007541043033497702,0.02893369221124768,0.08492681953684864,-0.9032197570659455,1.2243904427738321,9.651181871731357
3125000000,3.125,-0.004105647475998734,0.028028185988150912,0.08401632341332699,-0.695183234197875,1.1277102050004322,9.795237618949436
3130000000,3.13,-0.011557479176448436,0.03199103120293287,0.08896127326089218,-0.9090691045438133,1.045180575483578,9.522293753622625
3135000000,3.1350000000000002,-0.00140417628957823,0.03171284834745845,0.08631654596480214,-0.9506712876410315,0.9995342780283941,9.832573825671448
3140000000,3.14,-0.002862952492994625,0.03365655273695763,0.0889538233790076,-1.001904004576971,0.8119450785101897,9.584899169570354
3145000000,3.145,-0.0028326624960635645,0.030459613739476248,0.0895699797223039,-0.8367932428053536,1.349750127715553,9.73750076655672
3150000000,3.15,-0.0064051169131854905,0.02611783323300378,0.08907517677290296,-1.1587069129541614,0.9529813824793997,9.826754906671452
3155000000,3.1550000000000002,-0.007120315927022924,0.025410962723088848,0.08900454576421524,-1.0330113568528754,1.322831366101734,9.585416748563425
3160000000,3.16,-0.00806389458627926,0.03104156321726813,0.08339787947124624,-0.8493392862404254,0.9969965398895598,9.542496095789728
3165000000,3.165,-0.004435260923245485,0.02678968237431304,0.08629258385217208,-1.1660120114606578,0.9649101297590605,9.830212532158763
3170000000,3.17,-0.001689223179857328,0.026004585064987703,0.08578177760019098,-0.9971749191646865,1.1072397590004976,9.723021010877861
3175000000,3.1750000000000003,-0.002966987671211258,0.03031808341573906,0.08067172261159533,-1.0581218561306245,1.0431454564432923,9.576273526658484
3180000000,3.18,-0.0021595703957985766,0.023622260629837705,0.07925788773322348,-0.8086799466041314,1.2145287902118722,9.951915326168002
3185000000,3.185,-0.0032345784604608106,0.027572465674338034,0.0848223267519986,-0.8120371909676969,1.0371237929909483,9.425245253753216
3190000000,3.19,-0.008395411298446502,0.0304007506113063,0.08742132904670266,-0.731259564929053,0.8135640428038794,9.797700785966201
3195000000,3.1950000000000003,-0.008999012173628054,0.026290639283173482,0.08418155940964758,-0.9473156746837622,1.1101462665406274,9.796421278036744
3200000000,3.2,-0.008177145105074876,0.02979085316395955,0.0840200474119188,-0.8719327263141818,1.00241056049672,9.660105330947024
3205000000,3.205,-0.005639380197298673,0.030525024557135898,0.08709751055771651,-0.7366236740772136,1.0940338670938428,9.778130284395964
3210000000,3.21,-0.006090851921288047,0.024211085330493272,0.08376915540601278,-1.055980049904985,1.074640389848459,9.913665837099042
3215000000,3.215,-0.006697816982694473,0.027880111668254704,0.0889931601470935,-1.0497377467380633,1.2839898713052966,9.6485767360171
3220000000,3.22,-0.006965500753452222,0.022977780797371318,0.09192146087508492,-0.8965697986594795,1.1411952873223263,9.909275646661268
3225000000,3.225,-0.0034169552454351836,0.028397301865923166,0.08621342212308176,-0.8494368497127088,1.0980755914090339,9.60197495543508
3230000000,3.23,-0.011542415165016636,0.023756651693580422,0.08775999294277255,-0.8356919314901465,1.0157495862954151,9.699025918395053
3235000000,3.235,-0.005171944633491259,0.02670999011438832,0.08311501222069281,-0.743149656443084,1.1142623188429137,10.059092321352955
3240000000,3.24,-0.007518223859375818,0.03452096162543362,0.08437725155360207,-0.8041596976458324,0.9747504063040475,9.659517951389741
3245000000,3.245,-0.007744908558738253,0.030382462039967924,0.07993210798270774,-0.9599222848237359,1.2786097789042912,9.708012992930307
3250000000,3.25,-0.006873112827943577,0.03173831725875933,0.08825313511876173,-1.0701232469895279,1.023227320086204,9.57947388922771
3255000000,3.255,-0.009482338938056561,0.027385058766928608,0.08520434524718717,-0.9307670396487655,1.0633179239339976,9.708816389711718
3260000000,3.2600000000000002,-0.008889180890021131,0.028685317034845604,0.08521947623606556,-0.8170630544988466,1.2847364625155313,9.684008786724673
3265000000,3.265,-0.006608168411749644,0.02531770713965973,0.08780269978999615,-0.854167002148528,1.1091476769907567,9.653443397217414
3270000000,3.27,-0.01142695437279674,0.023872672754096744,0.07977957207973224,-1.046145806322198,1.074204742023808,9.97580581186902
3275000000,3.275,-0.006290967047939192,0.028437362439653995,0.07981635044424452,-0.664091588562101,1.1415502177333334,9.492495341640476
3280000000,3.2800000000000002,-0.010496424252883678,0.02712925799518681,0.07924485420637065,-0.5498673633993716,0.9933112736964647,10.09233647400663
3285000000,3.285,-0.008504675296277903,0.028852905026777828,0.07949451436961395,-0.9355087751103829,1.1883023623871016,9.85865357908298
3290000000,3.29,-0.008001805388064494,0.022387512580737918,0.08591264572662469,-0.7678611325224478,1.1042651847480647,9.503733186832982
3295000000,3.295,-0.010181939729051414,0.025566831081273465,0.08188237153815557,-0.8471751145115751,1.2322663059476835,9.740786857054534
3300000000,3.3000000000000003,-0.01191371252437533,0.02581407854861532,0.08344028402778123,-0.7715663387677226,1.2873327775816805,9.515870196037637
3305000000,3.305,-0.00524474975570055,0.024459212316787608,0.07686904654024429,-0.9820413430981716,1.3142655965290497,9.666923062918023
3310000000,3.31,-0.013601176939085875,0.027880682665639336,0.08157599967091587,-0.8995697539275043,0.9889353631095212,9.852479786266283
3315000000,3.315,-0.011926879523045249,0.027045290027451444,0.08065341611550383,-0.9640364054167568,1.4276151461996143,9.707033434761613
3320000000,3.3200000000000003,-0.00961625731081585,0.025723478985343242,0.07933441509317457,-1.0158925671330918,1.2826419447206125,9.920218389208804
3325000000,3.325,-0.009339334972690492,0.02366916570293028,0.08294025870388964,-1.0904411601996495,1.0513072798646614,9.68417222146003
3330000000,3.33,-0.00540877170027262,0.030390869798717315,0.08182196253670004,-0.7276917022875992,1.2511840906957719,9.594588895029123
3335000000,3.335,-0.011018948342338191,0.025581183631152193,0.0814880542376326,-0.7791565213691788,1.2036122497531472,9.70918317953246
3340000000,3.34,-0.01544882079078461,0.021520513852361704,0.07282626966616929,-1.0639281736023989,1.0183954777277056,9.994940120734725
3345000000,3.345,-0.011366538064592788,0.029671594914512142,0.07720439934842221,-1.1905119770614554,1.1349164510880825,9.636475932784755
3350000000,3.35,-0.012341202708810539,0.02190356975825826,0.07783388999637,-0.9896980553769024,1.0974338168085092,9.49142496341209
3355000000,3.355,-0.010161610162301125,0.020943473995091166,0.08168254821785502,-1.0214046373519017,1.0543158177009833,9.619449409040103
3360000000,3.36,-0.008116418799157754,0.025501074316492973,0.07952978103971887,-1.0865457210259826,1.136389816275076,9.860378895873309
3365000000,3.365,-0.012409198059459076,0.02563621135517221,0.07704656592448417,-0.9739843153863279,1.2844174668996775,9.746659558919507
3370000000,3.37,-0.010910616483120516,0.030738017189214352,0.08432882185500004,-0.9004017330937681,1.0501601329231014,9.5475248966494
3375000000,3.375,-0.011252568223564532,0.02543989012038783,0.08409045038307054,-1.301926373117918,1.0279159187893725,9.628291609309255
3380000000,3.38,-0.01191580475303634,0.02299662626926994,0.08407834571030968,-1.2119553451568938,0.944557285945127,9.570707335702352
3385000000,3.3850000000000002,-0.01214552508517772,0.024464054691717314,0.0815423226940294,-1.011058814243446,1.2492881417492891,9.820912434483201
3390000000,3.39,-0.015577709110157637,0.021335395109005704,0.08370816112845454,-1.0927866315600359,1.2096080846238702,9.468088769020765
3395000000,3.395,-0.008979506407127486,0.021400574582328493,0.08105003437334952,-0.9273912381809063,1.0452154202913047,9.763048027896772
3400000000,3.4,-0.0067739602331232775,0.02437731410532098,0.07829817473039838,-0.9851290617971679,1.2484471256505092,9.808966085127922
3405000000,3.4050000000000002,-0.009682545888418584,0.02145885612398577,0.07115432598865679,-0.9283510153600867,1.0134437176777416,9.630793249685844
3410000000,3.41,-0.010226267022264184,0.020853367547818476,0.08001619960630503,-0.9582192198493769,0.9368576950922495,9.776410258101764
3415000000,3.415,-0.013573663865567975,0.01958537862662677,0.07898367841665423,-0.8751837761219706,1.4182586563647301,10.009828276858206
3420000000,3.42,-0.013588224264657117,0.02236959896969054,0.08420559597676944,-1.1190006468431677,1.1729955769171956,9.786094965228623
3425000000,3.4250000000000003,-0.013488752555327388,0.027711366533145272,0.07920007462933074,-1.2006149974002833,1.2612379432388496,9.775199699593358
3430000000,3.43,-0.00780310209273408,0.018637640760256285,0.0803927542682001,-1.2564711961100379,1.0426502073245285,9.847722420979574
3435000000,3.435,-0.013639262634570425,0.01821664228928497,0.07436675909054592,-1.0673912738190332,0.9337023238829536,9.701377924754015
3440000000,3.44,-0.013124232433110372,0.020796139011838584,0.07331197985169506,-0.8094131898380904,1.157026626182518,9.653055001464486
3445000000,3.4450000000000003,-0.01587471135118199,0.02194585985398627,0.0864303964990845,-1.0745698270362516,1.2367344592284402,9.490150512970123
3450000000,3.45,-0.01237282150567635,0.017816207961848265,0.07757495210063538,-1.0135309879781242,1.319003170585826,9.813257581236938
3455000000,3.455,-0.01343732459806635,0.023467569574601645,0.0833735920696318,-0.8553083541691492,1.4343733303836372,9.824181039557319
3460000000,3.46,-0.015565807667295935,0.02801305214887849,0.07984010799799474,-0.8518896761011959,1.2374839440881649,9.4981916009583
3465000000,3.465,-0.008004376770574195,0.02485787646944793,0.07923560992383161,-0.9963527425465393,1.2434679948345468,9.583085540178468
3470000000,3.47,-0.010303002587685415,0.021146561551185043,0.07619901269566204,-0.962166100805525,1.1068669143499799,9.669552399092824
3475000000,3.475,-0.01438813672510986,0.02077555365799134,0.08048867469249349,-0.9581265590614899,1.1222320829319108,10.065574496629885
3480000000,3.48,-0.015021377760339382,0.018037162706996606,0.080584231547669,-0.9102092399711805,1.2333943572687742,10.010614633106274
3485000000,3.485,-0.014618675135007673,0.016954985191425423,0.07933074022088041,-0.8470656364155023,1.174119319436948,9.781028379099757
3490000000,3.49,-0.01336647132014744,0.022891854461806027,0.07886770652372987,-1.164464411863805,0.9930795243771688,9.815325683265483
3495000000,3.495,-0.016097624416791197,0.02174159757695036,0.08102971516000133,-1.0551608303218252,0.947039372716194,9.75702860263949
3500000000,3.5,-0.008024590253136853,0.01421335540765908,0.07653285317744425,-0.9390848779149421,1.2890067441783426,9.789678209813712
3505000000,3.505,-0.01548313004729761,0.017425768827855622,0.0790132863091821,-1.122087489709863,1.1610752073547133,9.619652846596395
3510000000,3.5100000000000002,-0.01619331966342888,0.018474897267808054,0.07629317880096793,-0.8860493063333416,1.1195186657293275,9.81908998528357
3515000000,3.515,-0.014792210985369082,0.014817024528117602,0.07852038620167438,-0.9508456827161593,1.1515733605701726,9.698435139427675
3520000000,3.52,-0.01733531264842776,0.020426172283538414,0.08073209383464139,-1.0846865829158758,1.1709013294116881,9.453817676799739
3525000000,3.525,-0.012609154156567087,0.022147157270114605,0.07435823921323297,-1.0798802740630336,0.8180253938719209,9.76711829092693
3530000000,3.5300000000000002,-0.008149450518629303,0.01419874635917723,0.07676174545152846,-1.067192492117651,1.0396132618299396,9.770124782714683
3535000000,3.535,-0.010924850587008036,0.01509168401648951,0.07724532450770635,-0.6938614383975856,1.2306569670449268,9.761689439102724
3540000000,3.54,-0.009241684964774136,0.016920258922531555,0.07357779786835796,-0.8989935360313255,1.2944421812159388,9.451201479018085
3545000000,3.545,-0.015918428711420872,0.01814646443486758,0.07473028237318909,-1.059906901482116,1.2073083439339214,9.703562125448892
3550000000,3.5500000000000003,-0.01570444498115206,0.01791581515882665,0.08010536380147212,-1.0083344075194882,1.1518041649591364,9.633360603812898
3555000000,3.555,-0.01394143433592177,0.018969030865919622,0.07623383168541174,-0.9077170480436458,1.3186835910612273,9.882654501135415
3560000000,3.56,-0.018731694925716667,0.014866448207237546,0.07852564810550249,-0.9672955078248003,1.3953483624738405,9.715311909895929
3565000000,3.565,-0.012438792823794124,0.017380347965833234,0.07026966685008375,-1.0260103438557784,1.4265835328358414,9.690759516845116
3570000000,3.5700000000000003,-0.01556360167718004,0.01776269240717175,0.07686959431899801,-0.9133860203485773,0.8790363160830582,9.602389192639508
3575000000,3.575,-0.009971371277344732,0.010380738139624254,0.07473861651527855,-0.952116315121816,1.035013503691047,9.475536946600863
3580000000,3.58,-0.01835486490116407,0.01723797340221295,0.07552427896960516,-0.7032170715826742,1.1414696491258614,9.691183505988949
3585000000,3.585,-0.016719374204588026,0.01772960986257073,0.07712364266264718,-0.8905421060706492,1.2829735198206342,9.50399629628715
3590000000,3.59,-0.016311028394934306,0.019273498839388524,0.07928927235635423,-1.1892628784552233,1.2245865969449774,9.803331261076304
3595000000,3.595,-0.01874147289826824,0.01242496120442639,0.07989833585672809,-0.8862868808651161,1.024840117308088,9.517689927724478
3600000000,3.6,-0.021912556079045353,0.014925381399818567,0.07688515611016855,-0.7493626431702876,1.0124981677944902,9.867414859846262
3605000000,3.605,-0.015574276397082126,0.015726978271824846,0.08260315024793345,-0.898712418990192,1.10176658510769,9.81626340416406
3610000000,3.61,-0.0126821604956788,0.019629875626756298,0.07578464048319095,-1.0245349626609916,1.2425942994969004,9.567307022854187
3615000000,3.615,-0.020708691137857397,0.017361153036368742,0.078334784528848,-0.9495210247578201,1.1838342466967609,9.766326996602071
3620000000,3.62,-0.016117352401912255,0.01739108603092517,0.0823984572610935,-0.6910406238219655,1.1413592735152704,9.778874148949741
3625000000,3.625,-0.015523368064025376,0.01580562239444039,0.0796594568640257,-0.7542522981275142,1.0372109776895537,9.502811651522187
3630000000,3.63,-0.01470462517571262,0.012202636623519086,0.07467611428323528,-1.1448035542914903,1.0736709972229765,9.863816137074037
3635000000,3.6350000000000002,-0.017542228508638326,0.013915438273176909,0.07627385956419569,-0.9994479868310899,1.066492797282168,10.153980405705074
3640000000,3.64,-0.015976190519537196,0.016605530999456122,0.08114121823449102,-0.9508247530419659,1.0857783985221756,9.916681086531266
3645000000,3.645,-0.018282797448132,0.017510246646846833,0.07382669222092132,-1.2568050627728329,1.0754449519329912,9.83250909821967
3650000000,3.65,-0.013633481054850655,0.014267568815659742,0.07527607881887285,-0.8432391042122521,0.935902018649297,9.54020185434451
3655000000,3.6550000000000002,-0.01331111958747909,0.013068844459600576,0.0729441596274269,-1.0922945915197053,1.211704168471409,9.91116087584978
3660000000,3.66,-0.022642990013671316,0.012171533502071612,0.07509461046318996,-1.1513619917427085,1.150366873830313,9.797654008984209
3665000000,3.665,-0.01533410801983392,0.014982386193615731,0.07594106504785847,-1.0540429714370643,1.2451765537068455,9.8865396400195
3670000000,3.67,-0.01593073435360651,0.013187225548707007,0.07394410518424838,-0.9126498294813327,1.2264326769549152,9.729519299128297
3675000000,3.6750000000000003,-0.019949894247740796,0.013766447109875868,0.07605778868090347,-0.9279182057838996,1.307504717030512,9.746877925730114
3680000000,3.68,-0.012949509527447044,0.014305887446699807,0.07249221558370741,-1.0508349225453089,1.250760716759864,9.809524364243924
3685000000,3.685,-0.011753813016704851,0.010311977580268882,0.06967515604114875,-0.9206818294253146,1.0121258369635595,9.661227462699783
3690000000,3.69,-0.018318711486415673,0.0075722652283235345,0.07561188903054199,-0.9530508143077667,1.1354092463893053,9.48337501271727
3695000000,3.6950000000000003,-0.015876242397139907,0.011131043304428762,0.07339193532993674,-0.9763873272448542,0.923131461737302,9.859977955584762
3700000000,3.7,-0.01630083135644857,0.011523260859865781,0.0738728862604565,-1.2878669389714545,1.0634615590353909,9.849365684827129
3705000000,3.705,-0.020321421962818227,0.013462274606707575,0.07363038414830969,-1.1154613687915815,0.9634898522474202,9.552028163208835
3710000000,3.71,-0.019888804503989894,0.009191174270126782,0.07322324222270364,-1.0432320542028497,1.0070255487010837,9.814951255490836
3715000000,3.715,-0.020547149794709132,0.010973084129890183,0.07058441755628325,-0.7341958969863828,1.0431461537829143,9.468837248296454
3720000000,3.72,-0.01576636510374886,0.010996970921119243,0.07084590702082368,-1.12574335455404,1.1325417619035287,9.659856043178593
3725000000,3.725,-0.018170207119854374,0.011469231672168975,0.0744769201758348,-0.7837644069300858,1.374705757163504,9.691354805621799
3730000000,3.73,-0.014979136424542978,0.009909424489646806,0.07473151713834171,-1.1168146108936439,1.0365666025138562,9.672254069222053
3735000000,3.735,-0.01884759066918795,0.014753016235821322,0.07145906573168961,-0.8899360107791565,0.8949337268218764,9.661045450112052
3740000000,3.74,-0.018086638594747875,0.012716505162372709,0.07257927385126421,-0.941037245212469,1.105806495118591,9.801180309054295
3745000000,3.745,-0.01792703692631697,0.010476340823774757,0.07641172578034283,-0.7690502291280814,1.0497234132889435,9.939418373952005
3750000000,3.75,-0.018509726599929516,0.01277027834512209,0.07386749282631395,-0.8765770826543323,1.2640432288099892,9.783756633404742
3755000000,3.755,-0.018550443455176913,0.01169127286764312,0.07343138008258925,-1.341531941160559,1.1328691461211444,9.683226684913807
3760000000,3.7600000000000002,-0.018097152570119575,0.008939079287741708,0.07417551524710088,-0.9785338635103928,1.2096215270873625,9.652004078961738
3765000000,3.765,-0.01698530012906174,0.004261623573612173,0.07183297382639196,-0.9807135106008519,1.3014442907580883,9.82345784635254
3770000000,3.77,-0.023122499901777983,0.007281734351018304,0.07206045542272589,-1.0128995012579352,1.237354037177186,9.773992884900617
3775000000,3.775,-0.020785232195716156,0.01066375137790571,0.07669277282133548,-1.0001828171608025,1.1153974568466323,9.771191101900778
3780000000,3.7800000000000002,-0.02132362718345876,0.00408751346830907,0.07206357845172891,-1.2118594980660022,1.3203835511013835,10.005349280723717
3785000000,3.785,-0.016396464288476773,0.007674297580404258,0.06898988605891618,-0.791526084499824,1.0520402737228034,10.002919610222062
3790000000,3.79,-0.01635329100431811,0.01236271640071866,0.06935298310201807,-1.1647946938985765,0.9348445759890615,9.73048060188322
3795000000,3.795,-0.01844482981873712,0.010848339206980966,0.07661091750045351,-0.7696535603703416,1.167726886477554,9.976965848469124
3800000000,3.8000000000000003,-0.016927524069357,0.005774839391898313,0.07355638887996206,-1.2965061962409525,0.906660973005583,9.812270961419847
3805000000,3.805,-0.020326921582599036,0.010137297569452941,0.07183247119691509,-0.9521462498777288,1.1460602919503176,9.50074020279733
3810000000,3.81,-0.016791794512140117,0.008347672743984933,0.0745460676283871,-1.0475003250984114,0.8657403749152526,9.681374165596853
3815000000,3.815,-0.016811745074238108,0.01051725566962311,0.07427992722085504,-0.9427403558146094,1.1874752430896849,9.914408060112274
3820000000,3.8200000000000003,-0.01563868754986479,0.006233697399828235,0.07507452988018481,-0.9485522940319664,1.1542220594745771,9.561622717464212
3825000000,3.825,-0.023652325284495297,0.008214200668285983,0.07115863433434459,-1.0007063078281189,1.050386302497928,9.686714734364019
3830000000,3.83,-0.025905954471197565,0.005614798998268719,0.07601106063890038,-0.8999772184979132,1.1538155227583422,9.574926748740955
3835000000,3.835,-0.02302735922326072,0.004101010937383123,0.07462889058127273,-1.1460626339340778,0.8632185009973595,9.866693994103795
3840000000,3.84,-0.016318176181749865,0.0021924594613607516,0.06686497275969532,-0.8170741696729871,1.1418360395198668,9.590833505598718
3845000000,3.845,-0.015695518322261025,0.002610937796758632,0.07250187432951215,-1.2378823130445546,1.1060203340142514,9.71095444643301
3850000000,3.85,-0.01799041264983935,0.0033234033751882307,0.07463912409802227,-0.8773773577847426,1.0934658422961487,9.716786950530752
3855000000,3.855,-0.011294507087465235,0.005218357838994594,0.06532552715480769,-1.049640177829836,0.9162125201152579,9.749951422985426
3860000000,3.86,-0.014942553578878536,0.009349176346563248,0.06783381424521315,-1.1201950850957574,1.1968417962805376,9.684320120977558
3865000000,3.865,-0.021605278649995344,0.007521605996550345,0.07111711605561907,-1.0484269822353651,1.1572971101085534,9.65407867152827
3870000000,3.87,-0.013743642510558651,0.00252488580676222,0.06830248356528627,-0.9856561490012968,1.2266166983407576,9.624717102630491
3875000000,3.875,-0.016966076063635684,0.0061957873850680455,0.07096740556002752,-0.929038457390082,1.2196759386778167,9.795669555101892
3880000000,3.88,-0.020671260815062566,0.0018378166566635503,0.06896800531641652,-0.8362790297824347,1.0871547819979317,9.702064817936073
3885000000,3.8850000000000002,-0.015414054426777353,0.00386992923025921,0.06850569743021882,-1.1933072562548794,1.1499383743753386,9.607904000277854
3890000000,3.89,-0.015497161375369738,0.005806328267810033,0.07011171078900401,-0.7921897180660632,1.0681488631725133,9.725612650496231
3895000000,3.895,-0.025604128916001202,0.005714136837491774,0.07178507973702035,-0.9029158432591076,1.050617649979996,9.767201172099833
3900000000,3.9,-0.020447069049290566,0.007928008868687395,0.07256897671874103,-0.7877921571754181,1.2968656294757395,9.717438980350781
3905000000,3.9050000000000002,-0.02070558475506709,0.0043954971373265615,0.06969757891204342,-1.0726927821973842,1.1431456342842299,9.60737747622158
3910000000,3.91,-0.01995455430757894,0.008034475312142762,0.06898021381577475,-1.0916478650401744,1.1475252828516058,9.60961602764686
3915000000,3.915,-0.024145553359801078,0.0029656671906994623,0.0712537956058409,-0.899372329031464,1.0278731890320538,9.647076924180933
3920000000,3.92,-0.023158325696472994,0.0008268990703404876,0.07428783235330115,-1.044595973149583,1.2861815174092035,9.717802116049905
3925000000,3.9250000000000003,-0.02249984158352869,0.0014200017651780084,0.06367875342202003,-0.9483103325757507,1.1334397891194121,9.764353156618837
3930000000,3.93,-0.017432519916603457,0.0026581667986090443,0.06419614553261384,-1.029568554298748,1.0031049794938893,9.941480905098215
3935000000,3.935,-0.02029928152832795,0.003927844103983563,0.06729223128679174,-0.7869886607067145,0.8465281775809752,9.610459716280236
3940000000,3.94,-0.020116914832060653,0.0032838598262307627,0.07047331743001137,-0.8793984742972728,1.0992601451102302,9.871788052296154
3945000000,3.9450000000000003,-0.02589640557984978,0.002440636567664566,0.06961589423999054,-1.08682586068861,1.0778594488759268,9.78255271891002
3950000000,3.95,-0.02037366238928364,0.005530801667584503,0.0673824539333772,-0.9074635341484815,1.028936981115311,9.525272986588124
3955000000,3.955,-0.01976300143087456,0.006659027858044514,0.06787625675740029,-1.051285325575699,1.145289820722909,9.593870524116305
3960000000,3.96,-0.026745399900426424,-0.0011363752076861172,0.07129597179968666,-0.7288314407031802,1.2292256425237806,9.708047273872367
3965000000,3.9650000000000003,-0.017317494998446425,0.0076894308531525336,0.0658098722281923,-0.7289116130580915,1.256784165533125,9.697095751764355
3970000000,3.97,-0.017727554805139527,2.1688884604360208e-05,0.06605394693743787,-0.96547437194675,1.0662422155883835,9.84025519169212
3975000000,3.975,-0.018179493139793137,0.0032525281502607693,0.06642935578162439,-0.9438743350087688,1.0058516787391927,9.836859808145695
3980000000,3.98,-0.02173432636132514,-9.18104586223017e-06,0.06720016573045318,-0.9118118899449742,1.0542718218017315,9.665536799934905
3985000000,3.985,-0.02120241606219569,-0.0008484781514322144,0.06660589177257076,-0.9239744005117184,1.1001862590713225,9.587221262586963
3990000000,3.99,-0.024503478086244247,0.00129799546579256,0.07113383102532905,-1.2182151880643055,1.1913858551332712,9.57400616578671
3995000000,3.995,-0.019905550172958066,-0.0009430019034240868,0.06502380707501251,-1.281753506959856,1.1970803365594773,9.851285192885195
4000000000,4.0,-0.028149601260618315,0.0013596411088294324,0.06363270105366599,-1.3013694006417529,1.26285525864494,9.754540620523292
4005000000,4.005,-0.01734611359449545,-0.0019039056997104688,0.06858576325511728,-1.0612499794063808,0.8177804692439717,9.664278174404739
4010000000,4.01,-0.014607725466043003,-0.0005496276790162802,0.06661005488139154,-1.1642077840370504,0.9858036319072732,9.754421013586079
4014999999,4.015,-0.019554332236901,-0.00029737925321963565,0.06673214381213177,-1.0014688219227708,1.2928747138310093,9.642182566296722
4020000000,4.0200000000000005,-0.019138141979451538,0.0030102816409139795,0.0689545295798546,-0.9461831585481113,1.110795595852555,9.88779654823231
4025000000,4.025,-0.020672242058800448,-0.0019658917974583984,0.06451416827046527,-0.9980986928550952,1.1194098258321108,9.68046578739625
4030000000,4.03,-0.01957071904105364,-0.0011072865408405877,0.06589826107302857,-1.1360545091020167,0.852390958494802,9.818056883456636
4035000000,4.035,-0.019025192290206636,-0.0021443642184429393,0.07407173648499406,-1.1010680051571946,1.2183099972917282,9.463627187451348
4040000000,4.04,-0.018757186708029276,-0.0014761450947825276,0.06834099780089721,-0.9733110400292375,1.164204992221052,9.900451664719577
4045000000,4.045,-0.019152355945213344,-0.001885356045524034,0.0674315171870916,-1.1810799078597756,0.9243898885680903,9.582504606016247
4050000000,4.05,-0.020452415375361816,-0.005791481423795713,0.06528301319567524,-1.0367975386551282,1.1092275489951875,9.745450577071626
4054999999,4.055,-0.017866799529658924,-0.00095814141290983,0.06418091588976203,-0.8113565451846396,0.8986920613607143,9.92318211939539
4060000000,4.0600000000000005,-0.021866960496726966,-0.0019058699567045517,0.06333340367924546,-0.9099646080640742,1.166029069387537,9.714811199849489
4065000000,4.065,-0.019953062590223027,-0.0015961440228892693,0.06668826802164433,-0.881555719376787,1.0030287295483757,9.713917830003966
4070000000,4.07,-0.021385075419429977,0.0017694098422292928,0.06729145374764217,-0.8915159901669012,0.8214289492305294,9.177426545721483
4075000000,4.075,-0.020000784569038997,0.0018168365675225282,0.06162569637533093,-1.0556997592424344,1.2229480466906195,9.575512059435757
4080000000,4.08,-0.020887934341303805,-0.0064757324706470505,0.06858528453916933,-0.9654756398244521,0.9353319707658312,9.64922341505622
4085000000,4.085,-0.022169557334441186,-0.005319146722745643,0.0669251416257638,-0.8746297462563076,0.8842157383733027,9.755356363677251
4090000000,4.09,-0.022871214708838617,-0.0048376223847253,0.06522923275901107,-0.9747790945476051,1.0690620499301784,9.579366833862178
4094999999,4.095,-0.014478542890166562,-0.0007614080339050674,0.06851745398031434,-0.9170303754070508,0.9755772536730718,9.589670464420953
4099999999,4.1,-0.01985636183204035,-0.003240000822016377,0.06316781762669763,-1.1474668199988245,1.255793142523197,9.656684908256693
4105000000,4.105,-0.019055046313725607,0.001654594475591107,0.06711416743759238,-0.8938165077120764,0.9754126420510713,9.65387161876405
4110000000,4.11,-0.020471835576335487,-0.0078332929787157,0.06438823585267,-0.974573804010718,1.0610720965246399,9.780188165601182
4115000000,4.115,-0.024039143930049797,-0.0032995478063384876,0.06672452342694123,-0.722754053539535,0.8719433397107681,9.578129427226312
4120000000,4.12,-0.021042771573258474,-0.006972775874185641,0.06382169409297742,-0.954665283786291,0.905210054532956,9.912404787382902
4125000000,4.125,-0.018865115383485044,0.001592802414092799,0.0679708227862937,-0.858653981507601,1.114900453883236,9.577662365777226
4130000000,4.13,-0.021202062497593835,-0.004912128473448413,0.06194697115121731,-1.0923330217184686,1.1742386485041891,9.82853024450819
4135000000,4.135,-0.022675559403549473,-0.007781320600947342,0.06660870454015838,-0.9841895627584819,0.9871208999842092,9.618307898021525
4139999999,4.14,-0.014966959299752539,-0.00041479232809266565,0.06409612490092612,-0.9466294819490015,1.1812483958120346,9.558032598016933
4145000000,4.1450000000000005,-0.019973838012264673,-0.0038291104349685574,0.06564134273743913,-1.018771331748546,1.2428668795033206,9.859723523748212
4150000000,4.15,-0.02207415181085063,-0.00603526974815664,0.06460342138667881,-1.1421395011775373,0.9470598791774905,9.834681687510635
4155000000,4.155,-0.023566357998178314,-0.011190551164534268,0.06305447496356056,-0.8711535612421886,1.1424446723952653,9.951949667324229
4160000000,4.16,-0.01665063858982251,-0.005877006773383094,0.06607930852482707,-1.1593757718259015,1.0005893337331713,9.685437151673396
4165000000,4.165,-0.022398220717756618,-0.006311935312905429,0.06748381985845399,-1.2732579800339245,0.9554104146571423,9.80840261775432
4170000000,4.17,-0.018382889169063055,-0.00671257855709272,0.06095144923583331,-1.1104705604638283,1.1699498243848985,9.869000446891299
4175000000,4.175,-0.020017267590845024,-0.0077582123507414025,0.0590582012733447,-0.7720675265657369,1.138625604381913,9.931420902015986
4179999999,4.18,-0.01896250275150013,-0.0016260521533301873,0.06411997867009352,-0.9191647799999654,0.9756752509559488,9.459735345031822
4185000000,4.1850000000000005,-0.02572342320873317,-0.005647351093450902,0.06176335694034563,-1.1075882057870654,1.0682366759479287,9.80338456322861
4190000000,4.19,-0.018206158760952718,-0.002615894132553074,0.0596920963689822,-1.021871084813557,0.812387516645672,9.80757593934462
4195000000,4.195,-0.01811328010691697,-0.00873955267666995,0.06158481711195784,-0.959859270876816,0.9994010422957594,9.67795715734828
4200000000,4.2,-0.023446128690569702,-0.01197605686156489,0.06551081999652966,-0.7288770606277106,0.8633402959124826,9.779354213216088
4205000000,4.205,-0.021834806004319408,-0.009923714108966253,0.06719862674283028,-1.3378726904897589,0.9085660606607427,9.724918598323393
4210000000,4.21,-0.02266887127374293,-0.0032084557600617547,0.06121423952369482,-1.1115196197488062,0.969006577222849,9.820941392480757
4215000000,4.215,-0.018716490350080158,-0.013234738221797132,0.06221240574766312,-0.9272108157192688,1.1065892589164077,9.63518348064909
4219999999,4.22,-0.02366510419205895,-0.010238886416592216,0.05951730498396972,-0.9665376556573976,0.8816434063702566,9.787891482675057
4224999999,4.225,-0.023990242567883364,-0.009524636030425967,0.05788219138839087,-1.0152468583731908,1.1496680042817873,9.655391116668863
4230000000,4.23,-0.019254615096425176,-0.00587800654489089,0.0584488462376997,-1.0545444992289563,0.8430003238750976,9.753613436846067
4235000000,4.235,-0.015662274427114223,-0.00693884607871741,0.06437243346361422,-1.3400967569416173,1.1119538321502682,9.957910967745487
4240000000,4.24,-0.018575895980927695,-0.007968762600239966,0.06067226286044024,-1.0007654936074004,1.1177403449636947,9.956771318442726
4245000000,4.245,-0.021596157707516116,-0.008326034543735022,0.06311231927078584,-0.9566135902264373,1.3382977902090754,9.62546674052639
4250000000,4.25,-0.016351310557531553,-0.01439587450821109,0.06225970293334304,-0.9483120754308366,1.0681631665370368,9.813237782814914
4255000000,4.255,-0.017270519401396612,-0.008864033930126799,0.06584385646746159,-0.8948097287067452,1.0209511869664964,9.473836545193935
4260000000,4.26,-0.017915491823386104,-0.01393232969129879,0.05948277602544362,-0.8091446136868494,1.1665148568345978,9.651009325964072
4264999999,4.265,-0.021959490838478618,-0.009293407906881577,0.06648778862387737,-0.8250542042593945,1.0084984352017845,9.532115195084854
4270000000,4.2700000000000005,-0.02045437789906292,-0.014781773608139401,0.06373005508496259,-0.8762048060285763,1.0344405068964502,9.66646315121785
4275000000,4.275,-0.021786349488998557,-0.011517693529647243,0.061260188226486066,-0.9833995553955918,1.159042221344891,9.829321766877163
4280000000,4.28,-0.020176846012647836,-0.00800643962531768,0.06254617080442669,-0.7105791572554596,1.1642821596104074,9.638514657145464
4285000000,4.285,-0.02337468818192828,-0.015514267707813981,0.058969673245363056,-0.9717145558336466,1.0746809215725173,9.733192806599776
4290000000,4.29,-0.0151956017025278,-0.014513297681140057,0.062022201404946284,-1.321937145168849,1.2518230737473734,9.900418260371492
4295000000,4.295,-0.022367569469477745,-0.009400209408956134,0.06469446469362951,-1.0105543114295812,1.129000806411047,9.761102487867873
4300000000,4.3,-0.020109675213046886,-0.01078622634089433,0.06258560081897883,-0.9529376720561489,1.1116255199037373,9.894113192023648
4305000000,4.305,-0.02197615233950515,-0.015589777000469249,0.05973952838215796,-0.7204037330671257,1.0045056783339303,9.776076756329882
4310000000,4.3100000000000005,-0.020066396814108572,-0.01692078764892174,0.060524567081311376,-0.90103844737776,0.9293726439162454,9.873713403994774
4315000000,4.315,-0.019752639830918177,-0.016327514448606927,0.05811980350072496,-0.9175344242385581,0.7418767861388261,9.697419053588256
4320000000,4.32,-0.02002057420234378,-0.011391975968240453,0.0633982312963651,-1.1817706578489238,1.2718930975520162,9.639345366598727
4325000000,4.325,-0.023882725853597152,-0.014390265598601059,0.06569358026592821,-0.6557668425260463,1.1554831589373322,9.61881989524691
4330000000,4.33,-0.021152103340505612,-0.01872000320779225,0.06027949905375066,-0.8337587039895682,0.9691616535446771,9.850970170472742
4335000000,4.335,-0.020353077674825134,-0.013133724929514267,0.05731863539855715,-1.0473620071286327,1.1665809233926643,9.766988029179448
4340000000,4.34,-0.020300628183493315,-0.013880086423180891,0.05753563272873255,-0.8076743283210516,1.0483654810730203,9.87116132389773
4345000000,4.345,-0.01960487149354186,-0.013540585741073643,0.05583349951947215,-0.8310139067358664,0.8396365999726063,9.69086699996665
4350000000,4.3500000000000005,-0.01810265548758124,-0.017225540572476064,0.05904858487403007,-1.03235723154743,0.9386544335961985,9.738662585484853
4355000000,4.355,-0.0214815377147757,-0.00971322185605713,0.05631645484619161,-0.8577213753151571,1.1818390458411276,9.611476105886142
4360000000,4.36,-0.018758030237293034,-0.014401419439317805,0.05838093029459588,-1.0249688729514983,0.9126007503853337,9.635841642382113
4365000000,4.365,-0.023997446821210994,-0.013137343949469454,0.061284470621397906,-1.1274859748496027,1.1746847164898817,10.020873318724782
4370000000,4.37,-0.022182925777507898,-0.015811110694310498,0.055355392715071235,-1.1261784042092295,0.9010020656714747,9.60986361629108
4375000000,4.375,-0.021266665784242272,-0.020603230213991713,0.06084164143124352,-0.7686512028886551,1.1978426019809005,9.862764440573324
4380000000,4.38,-0.024543431800476773,-0.00949514812721303,0.05817441461647099,-0.9999294887419122,0.8082540676771404,9.776545737339628
4385000000,4.385,-0.015743382309311695,-0.01717831404082321,0.05799533064286892,-0.9539993014145265,0.9945088659124145,9.673883228147913
4390000000,4.39,-0.01987568187306052,-0.02384402824308354,0.05835609133572108,-0.830963058990514,0.8397254462438604,9.496618340516905
4395000000,4.3950000000000005,-0.017184745178292608,-0.020382741069271147,0.059774844326367524,-1.0407874211367092,1.1049511325012193,9.65674382065603
